,file_id,TIMESTAMP_x,timestamp_raw,track,object_id_u,target_id,x_pos,y_pos,x_vel,y_vel,x_pos_processed,y_pos_processed,x_vel_processed,y_vel_processed,x_acc_estimated,target_travel_direction,lane,is_lead_vehicle,headway,modification_id,t,dis,speed,TIMESTAMP_y,acc_x,acc_y,acc_z
0,73018557,2000,746108,746,234,,10.56,-1.792,-1.792,-0.2,,,,,,,,,,2,2000.0,,,2000,0.1014999970793724,-0.10729999840259552,-1.0266000032424927
1,73018557,2000,746108,746,234,,10.56,-1.792,-1.792,-0.2,,,,,,,,,,2,2000.0,,,2099,0.12759999930858612,-0.10440000146627426,-1.0091999769210815
2,73018557,2000,783844,783,238,,14.656001,-1.696,-1.696,-0.1,,,,,,,,,,2,2000.0,,,2000,0.1014999970793724,-0.10729999840259552,-1.0266000032424927
3,73018557,2000,783844,783,238,,14.656001,-1.696,-1.696,-0.1,,,,,,,,,,2,2000.0,,,2099,0.12759999930858612,-0.10440000146627426,-1.0091999769210815
4,73018557,2000,745045,745,234,,10.816001,-2.112,-2.112,-0.6,,,,,,,,,,2,2000.0,,,2000,0.1014999970793724,-0.10729999840259552,-1.0266000032424927
5,73018557,2000,745045,745,234,,10.816001,-2.112,-2.112,-0.6,,,,,,,,,,2,2000.0,,,2099,0.12759999930858612,-0.10440000146627426,-1.0091999769210815
6,73018557,2000,744961,744,234,,10.912001,-2.08,-2.08,-0.7,,,,,,,,,,2,2000.0,,,2000,0.1014999970793724,-0.10729999840259552,-1.0266000032424927
7,73018557,2000,744961,744,234,,10.912001,-2.08,-2.08,-0.7,,,,,,,,,,2,2000.0,,,2099,0.12759999930858612,-0.10440000146627426,-1.0091999769210815
8,73018557,2000,744889,744,234,,11.040001,-2.08,-2.08,-0.8,,,,,,,,,,2,2000.0,,,2000,0.1014999970793724,-0.10729999840259552,-1.0266000032424927
9,73018557,2000,744889,744,234,,11.040001,-2.08,-2.08,-0.8,,,,,,,,,,2,2000.0,,,2099,0.12759999930858612,-0.10440000146627426,-1.0091999769210815
10,73018557,2000,783914,783,238,,14.656001,-1.728,-1.728,-0.1,,,,,,,,,,2,2000.0,,,2000,0.1014999970793724,-0.10729999840259552,-1.0266000032424927
11,73018557,2000,783914,783,238,,14.656001,-1.728,-1.728,-0.1,,,,,,,,,,2,2000.0,,,2099,0.12759999930858612,-0.10440000146627426,-1.0091999769210815
12,73018557,2000,744813,744,234,,11.232,-2.144,-2.144,-0.9,,,,,,,,,,2,2000.0,,,2000,0.1014999970793724,-0.10729999840259552,-1.0266000032424927
13,73018557,2000,744813,744,234,,11.232,-2.144,-2.144,-0.9,,,,,,,,,,2,2000.0,,,2099,0.12759999930858612,-0.10440000146627426,-1.0091999769210815
14,73018557,2000,784005,783,238,,14.656001,-1.76,-1.76,-0.1,,,,,,,,,,2,2000.0,,,2000,0.1014999970793724,-0.10729999840259552,-1.0266000032424927
15,73018557,2000,784005,783,238,,14.656001,-1.76,-1.76,-0.1,,,,,,,,,,2,2000.0,,,2099,0.12759999930858612,-0.10440000146627426,-1.0091999769210815
16,73018557,2000,744750,744,234,,11.360001,-2.112,-2.112,-1.0,,,,,,,,,,2,2000.0,,,2000,0.1014999970793724,-0.10729999840259552,-1.0266000032424927
17,73018557,2000,744750,744,234,,11.360001,-2.112,-2.112,-1.0,,,,,,,,,,2,2000.0,,,2099,0.12759999930858612,-0.10440000146627426,-1.0091999769210815
18,73018557,2000,784081,784,238,,14.656001,-1.792,-1.792,-0.1,,,,,,,,,,2,2000.0,,,2000,0.1014999970793724,-0.10729999840259552,-1.0266000032424927
19,73018557,2000,784081,784,238,,14.656001,-1.792,-1.792,-0.1,,,,,,,,,,2,2000.0,,,2099,0.12759999930858612,-0.10440000146627426,-1.0091999769210815
20,73018557,2000,784136,784,238,,14.656001,-1.856,-1.856,-0.1,,,,,,,,,,2,2000.0,,,2000,0.1014999970793724,-0.10729999840259552,-1.0266000032424927
21,73018557,2000,784136,784,238,,14.656001,-1.856,-1.856,-0.1,,,,,,,,,,2,2000.0,,,2099,0.12759999930858612,-0.10440000146627426,-1.0091999769210815
22,73018557,2000,798814,798,243,,6.144,-1.472,-1.472,0.0,,,,,,,,,,2,2000.0,,,2000,0.1014999970793724,-0.10729999840259552,-1.0266000032424927
23,73018557,2000,798814,798,243,,6.144,-1.472,-1.472,0.0,,,,,,,,,,2,2000.0,,,2099,0.12759999930858612,-0.10440000146627426,-1.0091999769210815
24,73018557,2000,798890,798,243,,6.144,-1.472,-1.472,0.0,,,,,,,,,,2,2000.0,,,2000,0.1014999970793724,-0.10729999840259552,-1.0266000032424927
25,73018557,2000,798890,798,243,,6.144,-1.472,-1.472,0.0,,,,,,,,,,2,2000.0,,,2099,0.12759999930858612,-0.10440000146627426,-1.0091999769210815
26,73018557,2000,744663,744,234,,11.552001,-2.144,-2.144,-1.1,,,,,,,,,,2,2000.0,,,2000,0.1014999970793724,-0.10729999840259552,-1.0266000032424927
27,73018557,2000,744663,744,234,,11.552001,-2.144,-2.144,-1.1,,,,,,,,,,2,2000.0,,,2099,0.12759999930858612,-0.10440000146627426,-1.0091999769210815
28,73018557,2000,853200,853,270,,61.088001,3.552,3.552,2.4,,,,,,,,,,2,2000.0,,,2000,0.1014999970793724,-0.10729999840259552,-1.0266000032424927
29,73018557,2000,853200,853,270,,61.088001,3.552,3.552,2.4,,,,,,,,,,2,2000.0,,,2099,0.12759999930858612,-0.10440000146627426,-1.0091999769210815
30,73018557,2000,853277,853,270,,60.672005,3.712,3.712,2.4,,,,,,,,,,2,2000.0,,,2000,0.1014999970793724,-0.10729999840259552,-1.0266000032424927
31,73018557,2000,853277,853,270,,60.672005,3.712,3.712,2.4,,,,,,,,,,2,2000.0,,,2099,0.12759999930858612,-0.10440000146627426,-1.0091999769210815
32,73018557,2000,746793,746,234,,10.496,-1.888,-1.888,-0.1,,,,,,,,,,2,2000.0,,,2000,0.1014999970793724,-0.10729999840259552,-1.0266000032424927
33,73018557,2000,746793,746,234,,10.496,-1.888,-1.888,-0.1,,,,,,,,,,2,2000.0,,,2099,0.12759999930858612,-0.10440000146627426,-1.0091999769210815
34,73018557,2000,746716,746,234,,10.528001,-1.888,-1.888,-0.1,,,,,,,,,,2,2000.0,,,2000,0.1014999970793724,-0.10729999840259552,-1.0266000032424927
35,73018557,2000,746716,746,234,,10.528001,-1.888,-1.888,-0.1,,,,,,,,,,2,2000.0,,,2099,0.12759999930858612,-0.10440000146627426,-1.0091999769210815
36,73018557,2000,746636,746,234,,10.528001,-1.856,-1.856,-0.1,,,,,,,,,,2,2000.0,,,2000,0.1014999970793724,-0.10729999840259552,-1.0266000032424927
37,73018557,2000,746636,746,234,,10.528001,-1.856,-1.856,-0.1,,,,,,,,,,2,2000.0,,,2099,0.12759999930858612,-0.10440000146627426,-1.0091999769210815
38,73018557,2000,746563,746,234,,10.528001,-1.856,-1.856,-0.1,,,,,,,,,,2,2000.0,,,2000,0.1014999970793724,-0.10729999840259552,-1.0266000032424927
39,73018557,2000,746563,746,234,,10.528001,-1.856,-1.856,-0.1,,,,,,,,,,2,2000.0,,,2099,0.12759999930858612,-0.10440000146627426,-1.0091999769210815
40,73018557,2000,745346,745,234,,10.400001,-1.984,-1.984,-0.4,,,,,,,,,,2,2000.0,,,2000,0.1014999970793724,-0.10729999840259552,-1.0266000032424927
41,73018557,2000,745346,745,234,,10.400001,-1.984,-1.984,-0.4,,,,,,,,,,2,2000.0,,,2099,0.12759999930858612,-0.10440000146627426,-1.0091999769210815
42,73018557,2000,745412,745,234,,10.304001,-1.952,-1.952,-0.4,,,,,,,,,,2,2000.0,,,2000,0.1014999970793724,-0.10729999840259552,-1.0266000032424927
43,73018557,2000,745412,745,234,,10.304001,-1.952,-1.952,-0.4,,,,,,,,,,2,2000.0,,,2099,0.12759999930858612,-0.10440000146627426,-1.0091999769210815
44,73018557,2000,745518,745,234,,10.240001,-1.92,-1.92,-0.4,,,,,,,,,,2,2000.0,,,2000,0.1014999970793724,-0.10729999840259552,-1.0266000032424927
45,73018557,2000,745518,745,234,,10.240001,-1.92,-1.92,-0.4,,,,,,,,,,2,2000.0,,,2099,0.12759999930858612,-0.10440000146627426,-1.0091999769210815
46,73018557,2000,745595,745,234,,10.240001,-1.92,-1.92,-0.3,,,,,,,,,,2,2000.0,,,2000,0.1014999970793724,-0.10729999840259552,-1.0266000032424927
47,73018557,2000,745595,745,234,,10.240001,-1.92,-1.92,-0.3,,,,,,,,,,2,2000.0,,,2099,0.12759999930858612,-0.10440000146627426,-1.0091999769210815
48,73018557,2000,745649,745,234,,10.624001,-1.696,-1.696,-0.3,,,,,,,,,,2,2000.0,,,2000,0.1014999970793724,-0.10729999840259552,-1.0266000032424927
49,73018557,2000,745649,745,234,,10.624001,-1.696,-1.696,-0.3,,,,,,,,,,2,2000.0,,,2099,0.12759999930858612,-0.10440000146627426,-1.0091999769210815
50,73018557,2000,745729,745,234,,10.624001,-1.728,-1.728,-0.3,,,,,,,,,,2,2000.0,,,2000,0.1014999970793724,-0.10729999840259552,-1.0266000032424927
51,73018557,2000,745729,745,234,,10.624001,-1.728,-1.728,-0.3,,,,,,,,,,2,2000.0,,,2099,0.12759999930858612,-0.10440000146627426,-1.0091999769210815
52,73018557,2000,745806,745,234,,10.624001,-1.728,-1.728,-0.3,,,,,,,,,,2,2000.0,,,2000,0.1014999970793724,-0.10729999840259552,-1.0266000032424927
53,73018557,2000,745806,745,234,,10.624001,-1.728,-1.728,-0.3,,,,,,,,,,2,2000.0,,,2099,0.12759999930858612,-0.10440000146627426,-1.0091999769210815
54,73018557,2000,853347,853,270,,60.224003,3.872,3.872,2.4,,,,,,,,,,2,2000.0,,,2000,0.1014999970793724,-0.10729999840259552,-1.0266000032424927
55,73018557,2000,853347,853,270,,60.224003,3.872,3.872,2.4,,,,,,,,,,2,2000.0,,,2099,0.12759999930858612,-0.10440000146627426,-1.0091999769210815
56,73018557,2000,745883,745,234,,10.592001,-1.728,-1.728,-0.2,,,,,,,,,,2,2000.0,,,2000,0.1014999970793724,-0.10729999840259552,-1.0266000032424927
57,73018557,2000,745883,745,234,,10.592001,-1.728,-1.728,-0.2,,,,,,,,,,2,2000.0,,,2099,0.12759999930858612,-0.10440000146627426,-1.0091999769210815
58,73018557,2000,746033,746,234,,10.592001,-1.76,-1.76,-0.2,,,,,,,,,,2,2000.0,,,2000,0.1014999970793724,-0.10729999840259552,-1.0266000032424927
59,73018557,2000,746033,746,234,,10.592001,-1.76,-1.76,-0.2,,,,,,,,,,2,2000.0,,,2099,0.12759999930858612,-0.10440000146627426,-1.0091999769210815
60,73018557,2000,745133,745,234,,10.688001,-2.08,-2.08,-0.6,,,,,,,,,,2,2000.0,,,2000,0.1014999970793724,-0.10729999840259552,-1.0266000032424927
61,73018557,2000,745133,745,234,,10.688001,-2.08,-2.08,-0.6,,,,,,,,,,2,2000.0,,,2099,0.12759999930858612,-0.10440000146627426,-1.0091999769210815
62,73018557,2000,746185,746,234,,10.528001,-1.792,-1.792,-0.1,,,,,,,,,,2,2000.0,,,2000,0.1014999970793724,-0.10729999840259552,-1.0266000032424927
63,73018557,2000,746185,746,234,,10.528001,-1.792,-1.792,-0.1,,,,,,,,,,2,2000.0,,,2099,0.12759999930858612,-0.10440000146627426,-1.0091999769210815
64,73018557,2000,746262,746,234,,10.528001,-1.824,-1.824,-0.1,,,,,,,,,,2,2000.0,,,2000,0.1014999970793724,-0.10729999840259552,-1.0266000032424927
65,73018557,2000,746262,746,234,,10.528001,-1.824,-1.824,-0.1,,,,,,,,,,2,2000.0,,,2099,0.12759999930858612,-0.10440000146627426,-1.0091999769210815
66,73018557,2000,746330,746,234,,10.528001,-1.824,-1.824,-0.1,,,,,,,,,,2,2000.0,,,2000,0.1014999970793724,-0.10729999840259552,-1.0266000032424927
67,73018557,2000,746330,746,234,,10.528001,-1.824,-1.824,-0.1,,,,,,,,,,2,2000.0,,,2099,0.12759999930858612,-0.10440000146627426,-1.0091999769210815
68,73018557,2000,746406,746,234,,10.528001,-1.824,-1.824,-0.1,,,,,,,,,,2,2000.0,,,2000,0.1014999970793724,-0.10729999840259552,-1.0266000032424927
69,73018557,2000,746406,746,234,,10.528001,-1.824,-1.824,-0.1,,,,,,,,,,2,2000.0,,,2099,0.12759999930858612,-0.10440000146627426,-1.0091999769210815
70,73018557,2000,746463,746,234,,10.528001,-1.856,-1.856,-0.1,,,,,,,,,,2,2000.0,,,2000,0.1014999970793724,-0.10729999840259552,-1.0266000032424927
71,73018557,2000,746463,746,234,,10.528001,-1.856,-1.856,-0.1,,,,,,,,,,2,2000.0,,,2099,0.12759999930858612,-0.10440000146627426,-1.0091999769210815
72,73018557,2000,745947,745,234,,10.592001,-1.76,-1.76,-0.2,,,,,,,,,,2,2000.0,,,2000,0.1014999970793724,-0.10729999840259552,-1.0266000032424927
73,73018557,2000,745947,745,234,,10.592001,-1.76,-1.76,-0.2,,,,,,,,,,2,2000.0,,,2099,0.12759999930858612,-0.10440000146627426,-1.0091999769210815
74,73018557,2000,745264,745,234,,10.496,-2.016,-2.016,-0.5,,,,,,,,,,2,2000.0,,,2000,0.1014999970793724,-0.10729999840259552,-1.0266000032424927
75,73018557,2000,745264,745,234,,10.496,-2.016,-2.016,-0.5,,,,,,,,,,2,2000.0,,,2099,0.12759999930858612,-0.10440000146627426,-1.0091999769210815
76,73018557,2000,853433,853,270,,59.808002,4.032,4.032,2.4,,,,,,,,,,2,2000.0,,,2000,0.1014999970793724,-0.10729999840259552,-1.0266000032424927
77,73018557,2000,853433,853,270,,59.808002,4.032,4.032,2.4,,,,,,,,,,2,2000.0,,,2099,0.12759999930858612,-0.10440000146627426,-1.0091999769210815
78,73018557,2000,744518,744,234,,11.936001,-2.208,-2.208,-1.3,,,,,,,,,,2,2000.0,,,2000,0.1014999970793724,-0.10729999840259552,-1.0266000032424927
79,73018557,2000,744518,744,234,,11.936001,-2.208,-2.208,-1.3,,,,,,,,,,2,2000.0,,,2099,0.12759999930858612,-0.10440000146627426,-1.0091999769210815
80,73018557,2000,744594,744,234,,11.776001,-2.272,-2.272,-1.2,,,,,,,,,,2,2000.0,,,2000,0.1014999970793724,-0.10729999840259552,-1.0266000032424927
81,73018557,2000,744594,744,234,,11.776001,-2.272,-2.272,-1.2,,,,,,,,,,2,2000.0,,,2099,0.12759999930858612,-0.10440000146627426,-1.0091999769210815
82,73018557,2000,656362,656,201,,-0.704,-1.024,-1.024,1.1,,,,,,,,,,2,2000.0,,,2000,0.1014999970793724,-0.10729999840259552,-1.0266000032424927
83,73018557,2000,656362,656,201,,-0.704,-1.024,-1.024,1.1,,,,,,,,,,2,2000.0,,,2099,0.12759999930858612,-0.10440000146627426,-1.0091999769210815
84,73018557,2000,656296,656,201,,-0.288,-1.12,-1.12,1.1,,,,,,,,,,2,2000.0,,,2000,0.1014999970793724,-0.10729999840259552,-1.0266000032424927
85,73018557,2000,656296,656,201,,-0.288,-1.12,-1.12,1.1,,,,,,,,,,2,2000.0,,,2099,0.12759999930858612,-0.10440000146627426,-1.0091999769210815
86,73018557,2000,519012,519,173,,43.52,-4.416,-4.416,0.0,,,,,,,,,,2,2000.0,,,2000,0.1014999970793724,-0.10729999840259552,-1.0266000032424927
87,73018557,2000,519012,519,173,,43.52,-4.416,-4.416,0.0,,,,,,,,,,2,2000.0,,,2099,0.12759999930858612,-0.10440000146627426,-1.0091999769210815
88,73018557,2000,1147746,1147,393,,17.184,2.304,2.304,0.0,,,,,,,,,,2,2000.0,,,2000,0.1014999970793724,-0.10729999840259552,-1.0266000032424927
89,73018557,2000,1147746,1147,393,,17.184,2.304,2.304,0.0,,,,,,,,,,2,2000.0,,,2099,0.12759999930858612,-0.10440000146627426,-1.0091999769210815
90,73018557,2000,1147834,1147,393,,17.184,2.336,2.336,0.0,,,,,,,,,,2,2000.0,,,2000,0.1014999970793724,-0.10729999840259552,-1.0266000032424927
91,73018557,2000,1147834,1147,393,,17.184,2.336,2.336,0.0,,,,,,,,,,2,2000.0,,,2099,0.12759999930858612,-0.10440000146627426,-1.0091999769210815
92,73018557,2000,1147686,1147,393,,17.184,2.304,2.304,0.0,,,,,,,,,,2,2000.0,,,2000,0.1014999970793724,-0.10729999840259552,-1.0266000032424927
93,73018557,2000,1147686,1147,393,,17.184,2.304,2.304,0.0,,,,,,,,,,2,2000.0,,,2099,0.12759999930858612,-0.10440000146627426,-1.0091999769210815
94,73018557,2000,518936,518,173,,43.648003,-4.416,-4.416,0.0,,,,,,,,,,2,2000.0,,,2000,0.1014999970793724,-0.10729999840259552,-1.0266000032424927
95,73018557,2000,518936,518,173,,43.648003,-4.416,-4.416,0.0,,,,,,,,,,2,2000.0,,,2099,0.12759999930858612,-0.10440000146627426,-1.0091999769210815
96,73018557,2000,518790,518,173,,43.936001,-4.352,-4.352,0.0,,,,,,,,,,2,2000.0,,,2000,0.1014999970793724,-0.10729999840259552,-1.0266000032424927
97,73018557,2000,518790,518,173,,43.936001,-4.352,-4.352,0.0,,,,,,,,,,2,2000.0,,,2099,0.12759999930858612,-0.10440000146627426,-1.0091999769210815
98,73018557,2000,275185,275,102,,61.888004,0.416,0.416,-0.3,,,,,,,,,,2,2000.0,,,2000,0.1014999970793724,-0.10729999840259552,-1.0266000032424927
99,73018557,2000,275185,275,102,,61.888004,0.416,0.416,-0.3,,,,,,,,,,2,2000.0,,,2099,0.12759999930858612,-0.10440000146627426,-1.0091999769210815
100,73018557,2000,275109,275,102,,62.080002,0.48,0.48,-0.3,,,,,,,,,,2,2000.0,,,2000,0.1014999970793724,-0.10729999840259552,-1.0266000032424927
101,73018557,2000,275109,275,102,,62.080002,0.48,0.48,-0.3,,,,,,,,,,2,2000.0,,,2099,0.12759999930858612,-0.10440000146627426,-1.0091999769210815
102,73018557,2000,275015,275,102,,62.304005,0.544,0.544,-0.3,,,,,,,,,,2,2000.0,,,2000,0.1014999970793724,-0.10729999840259552,-1.0266000032424927
103,73018557,2000,275015,275,102,,62.304005,0.544,0.544,-0.3,,,,,,,,,,2,2000.0,,,2099,0.12759999930858612,-0.10440000146627426,-1.0091999769210815
104,73018557,2000,274943,274,102,,62.528004,0.544,0.544,-0.3,,,,,,,,,,2,2000.0,,,2000,0.1014999970793724,-0.10729999840259552,-1.0266000032424927
105,73018557,2000,274943,274,102,,62.528004,0.544,0.544,-0.3,,,,,,,,,,2,2000.0,,,2099,0.12759999930858612,-0.10440000146627426,-1.0091999769210815
106,73018557,2000,274860,274,102,,62.752003,0.608,0.608,-0.3,,,,,,,,,,2,2000.0,,,2000,0.1014999970793724,-0.10729999840259552,-1.0266000032424927
107,73018557,2000,274860,274,102,,62.752003,0.608,0.608,-0.3,,,,,,,,,,2,2000.0,,,2099,0.12759999930858612,-0.10440000146627426,-1.0091999769210815
108,73018557,2000,518863,518,173,,43.808002,-4.384,-4.384,0.0,,,,,,,,,,2,2000.0,,,2000,0.1014999970793724,-0.10729999840259552,-1.0266000032424927
109,73018557,2000,518863,518,173,,43.808002,-4.384,-4.384,0.0,,,,,,,,,,2,2000.0,,,2099,0.12759999930858612,-0.10440000146627426,-1.0091999769210815
110,73018557,2000,1147609,1147,393,,17.184,2.304,2.304,0.0,,,,,,,,,,2,2000.0,,,2000,0.1014999970793724,-0.10729999840259552,-1.0266000032424927
111,73018557,2000,1147609,1147,393,,17.184,2.304,2.304,0.0,,,,,,,,,,2,2000.0,,,2099,0.12759999930858612,-0.10440000146627426,-1.0091999769210815
112,73018557,2000,656450,656,201,,-1.088,-0.928,-0.928,1.1,,,,,,,,,,2,2000.0,,,2000,0.1014999970793724,-0.10729999840259552,-1.0266000032424927
113,73018557,2000,656450,656,201,,-1.088,-0.928,-0.928,1.1,,,,,,,,,,2,2000.0,,,2099,0.12759999930858612,-0.10440000146627426,-1.0091999769210815
114,73018557,2000,745209,745,234,,10.592001,-2.112,-2.112,-0.5,,,,,,,,,,2,2000.0,,,2000,0.1014999970793724,-0.10729999840259552,-1.0266000032424927
115,73018557,2000,745209,745,234,,10.592001,-2.112,-2.112,-0.5,,,,,,,,,,2,2000.0,,,2099,0.12759999930858612,-0.10440000146627426,-1.0091999769210815
116,73018557,2000,1147530,1147,393,,17.184,2.304,2.304,0.0,,,,,,,,,,2,2000.0,,,2000,0.1014999970793724,-0.10729999840259552,-1.0266000032424927
117,73018557,2000,1147530,1147,393,,17.184,2.304,2.304,0.0,,,,,,,,,,2,2000.0,,,2099,0.12759999930858612,-0.10440000146627426,-1.0091999769210815
118,73018557,2000,656590,656,201,,-1.888,-0.736,-0.736,1.2,,,,,,,,,,2,2000.0,,,2000,0.1014999970793724,-0.10729999840259552,-1.0266000032424927
119,73018557,2000,656590,656,201,,-1.888,-0.736,-0.736,1.2,,,,,,,,,,2,2000.0,,,2099,0.12759999930858612,-0.10440000146627426,-1.0091999769210815
120,73018557,2000,1147463,1147,393,,17.184,2.272,2.272,0.0,,,,,,,,,,2,2000.0,,,2000,0.1014999970793724,-0.10729999840259552,-1.0266000032424927
121,73018557,2000,1147463,1147,393,,17.184,2.272,2.272,0.0,,,,,,,,,,2,2000.0,,,2099,0.12759999930858612,-0.10440000146627426,-1.0091999769210815
122,73018557,2000,1147383,1147,393,,17.184,2.208,2.208,0.1,,,,,,,,,,2,2000.0,,,2000,0.1014999970793724,-0.10729999840259552,-1.0266000032424927
123,73018557,2000,1147383,1147,393,,17.184,2.208,2.208,0.1,,,,,,,,,,2,2000.0,,,2099,0.12759999930858612,-0.10440000146627426,-1.0091999769210815
124,73018557,2000,656662,656,201,,-2.272,-0.64,-0.64,1.2,,,,,,,,,,2,2000.0,,,2000,0.1014999970793724,-0.10729999840259552,-1.0266000032424927
125,73018557,2000,656662,656,201,,-2.272,-0.64,-0.64,1.2,,,,,,,,,,2,2000.0,,,2099,0.12759999930858612,-0.10440000146627426,-1.0091999769210815
126,73018557,2000,1147078,1147,393,,17.216002,1.824,1.824,0.1,,,,,,,,,,2,2000.0,,,2000,0.1014999970793724,-0.10729999840259552,-1.0266000032424927
127,73018557,2000,1147078,1147,393,,17.216002,1.824,1.824,0.1,,,,,,,,,,2,2000.0,,,2099,0.12759999930858612,-0.10440000146627426,-1.0091999769210815
128,73018557,2000,1147306,1147,393,,17.184,2.144,2.144,0.1,,,,,,,,,,2,2000.0,,,2000,0.1014999970793724,-0.10729999840259552,-1.0266000032424927
129,73018557,2000,1147306,1147,393,,17.184,2.144,2.144,0.1,,,,,,,,,,2,2000.0,,,2099,0.12759999930858612,-0.10440000146627426,-1.0091999769210815
130,73018557,2000,744432,744,234,,12.128,-2.176,-2.176,-1.4,,,,,,,,,,2,2000.0,,,2000,0.1014999970793724,-0.10729999840259552,-1.0266000032424927
131,73018557,2000,744432,744,234,,12.128,-2.176,-2.176,-1.4,,,,,,,,,,2,2000.0,,,2099,0.12759999930858612,-0.10440000146627426,-1.0091999769210815
132,73018557,2000,744361,744,234,,12.320001,-2.112,-2.112,-1.5,,,,,,,,,,2,2000.0,,,2000,0.1014999970793724,-0.10729999840259552,-1.0266000032424927
133,73018557,2000,744361,744,234,,12.320001,-2.112,-2.112,-1.5,,,,,,,,,,2,2000.0,,,2099,0.12759999930858612,-0.10440000146627426,-1.0091999769210815
134,73018557,2000,1147236,1147,393,,17.216002,2.08,2.08,0.1,,,,,,,,,,2,2000.0,,,2000,0.1014999970793724,-0.10729999840259552,-1.0266000032424927
135,73018557,2000,1147236,1147,393,,17.216002,2.08,2.08,0.1,,,,,,,,,,2,2000.0,,,2099,0.12759999930858612,-0.10440000146627426,-1.0091999769210815
136,73018557,2000,656514,656,201,,-1.504,-0.832,-0.832,1.2,,,,,,,,,,2,2000.0,,,2000,0.1014999970793724,-0.10729999840259552,-1.0266000032424927
137,73018557,2000,656514,656,201,,-1.504,-0.832,-0.832,1.2,,,,,,,,,,2,2000.0,,,2099,0.12759999930858612,-0.10440000146627426,-1.0091999769210815
138,73018557,2000,656742,656,201,,-2.688,-0.512,-0.512,1.2,,,,,,,,,,2,2000.0,,,2000,0.1014999970793724,-0.10729999840259552,-1.0266000032424927
139,73018557,2000,656742,656,201,,-2.688,-0.512,-0.512,1.2,,,,,,,,,,2,2000.0,,,2099,0.12759999930858612,-0.10440000146627426,-1.0091999769210815
140,73018557,2000,1147158,1147,393,,17.216002,1.984,1.984,0.1,,,,,,,,,,2,2000.0,,,2000,0.1014999970793724,-0.10729999840259552,-1.0266000032424927
141,73018557,2000,1147158,1147,393,,17.216002,1.984,1.984,0.1,,,,,,,,,,2,2000.0,,,2099,0.12759999930858612,-0.10440000146627426,-1.0091999769210815
142,73018557,2000,656806,656,201,,-3.072,-0.416,-0.416,1.2,,,,,,,,,,2,2000.0,,,2000,0.1014999970793724,-0.10729999840259552,-1.0266000032424927
143,73018557,2000,656806,656,201,,-3.072,-0.416,-0.416,1.2,,,,,,,,,,2,2000.0,,,2099,0.12759999930858612,-0.10440000146627426,-1.0091999769210815
144,73018557,3000,852363,852,268,,66.144005,0.128,0.128,0.3,,,,,,,,,,2,3000.0,,,3000,0.13920000195503235,0.0,-0.9251000285148621
145,73018557,3000,852363,852,268,,66.144005,0.128,0.128,0.3,,,,,,,,,,2,3000.0,,,3099,0.11890000104904175,-0.0203000009059906,-0.974399983882904
146,73018557,3000,852442,852,269,,65.888,0.256,0.256,0.3,,,,,,,,,,2,3000.0,,,3000,0.13920000195503235,0.0,-0.9251000285148621
147,73018557,3000,852442,852,269,,65.888,0.256,0.256,0.3,,,,,,,,,,2,3000.0,,,3099,0.11890000104904175,-0.0203000009059906,-0.974399983882904
148,73018557,3000,852301,852,268,,66.368004,0.0,0.0,0.3,,,,,,,,,,2,3000.0,,,3000,0.13920000195503235,0.0,-0.9251000285148621
149,73018557,3000,852301,852,268,,66.368004,0.0,0.0,0.3,,,,,,,,,,2,3000.0,,,3099,0.11890000104904175,-0.0203000009059906,-0.974399983882904
150,73018557,3000,852225,852,268,,66.624001,-0.128,-0.128,0.3,,,,,,,,,,2,3000.0,,,3000,0.13920000195503235,0.0,-0.9251000285148621
151,73018557,3000,852225,852,268,,66.624001,-0.128,-0.128,0.3,,,,,,,,,,2,3000.0,,,3099,0.11890000104904175,-0.0203000009059906,-0.974399983882904
152,73018557,3000,852581,852,269,,64.576004,1.76,1.76,1.2,,,,,,,,,,2,3000.0,,,3000,0.13920000195503235,0.0,-0.9251000285148621
153,73018557,3000,852581,852,269,,64.576004,1.76,1.76,1.2,,,,,,,,,,2,3000.0,,,3099,0.11890000104904175,-0.0203000009059906,-0.974399983882904
154,73018557,3802,3801,1,1,1.0,99.104004,-8.32,-8.32,10.5,98.725696,-8.795669,-13.918236,-2.735371,-1.803709,-2.0,,0.0,7.786739,2,3800.0,99.11673341995275,12.678695921360662,3800,0.12470000237226486,-0.017400000244379044,-0.9889000058174133
155,73018557,3802,3801,1,1,1.0,99.104004,-8.32,-8.32,10.5,98.725696,-8.795669,-13.918236,-2.735371,-1.803709,-2.0,,0.0,7.786739,2,3800.0,99.11673341995275,12.678695921360662,3899,0.10440000146627426,-0.049300000071525574,-0.974399983882904
156,73018557,4000,852885,852,270,,63.200005,2.112,2.112,1.1,,,,,,,,,,2,4000.0,,,4000,0.10729999840259552,-0.014499999582767487,-0.9889000058174133
157,73018557,4000,852885,852,270,,63.200005,2.112,2.112,1.1,,,,,,,,,,2,4000.0,,,4099,0.09860000014305115,-0.026100000366568565,-0.994700014591217
158,73018557,4000,852809,852,270,,63.552002,2.048,2.048,1.1,,,,,,,,,,2,4000.0,,,4000,0.10729999840259552,-0.014499999582767487,-0.9889000058174133
159,73018557,4000,852809,852,270,,63.552002,2.048,2.048,1.1,,,,,,,,,,2,4000.0,,,4099,0.09860000014305115,-0.026100000366568565,-0.994700014591217
160,73018557,4000,852745,852,270,,63.872002,1.984,1.984,1.1,,,,,,,,,,2,4000.0,,,4000,0.10729999840259552,-0.014499999582767487,-0.9889000058174133
161,73018557,4000,852745,852,270,,63.872002,1.984,1.984,1.1,,,,,,,,,,2,4000.0,,,4099,0.09860000014305115,-0.026100000366568565,-0.994700014591217
162,73018557,4000,852661,852,270,,64.224007,1.888,1.888,1.1,,,,,,,,,,2,4000.0,,,4000,0.10729999840259552,-0.014499999582767487,-0.9889000058174133
163,73018557,4000,852661,852,270,,64.224007,1.888,1.888,1.1,,,,,,,,,,2,4000.0,,,4099,0.09860000014305115,-0.026100000366568565,-0.994700014591217
164,73018557,4000,852138,852,268,,66.880005,-0.256,-0.256,0.4,,,,,,,,,,2,4000.0,,,4000,0.10729999840259552,-0.014499999582767487,-0.9889000058174133
165,73018557,4000,852138,852,268,,66.880005,-0.256,-0.256,0.4,,,,,,,,,,2,4000.0,,,4099,0.09860000014305115,-0.026100000366568565,-0.994700014591217
166,73018557,4030,4018,1,1,1.0,95.488007,-9.824,-9.824,1.0,95.46318,-9.366273,-14.648255,-1.920766,-1.161733,-2.0,,0.0,7.283977,2,4000.0,95.92156069217664,13.105914529933303,4000,0.10729999840259552,-0.014499999582767487,-0.9889000058174133
167,73018557,4030,4018,1,1,1.0,95.488007,-9.824,-9.824,1.0,95.46318,-9.366273,-14.648255,-1.920766,-1.161733,-2.0,,0.0,7.283977,2,4000.0,95.92156069217664,13.105914529933303,4099,0.09860000014305115,-0.026100000366568565,-0.994700014591217
168,73018557,4182,4184,1,1,1.0,93.216003,-10.048,-10.048,0.4,93.214988,-9.554355,-14.899781,-0.495565,-0.549861,-2.0,,0.0,6.941947,2,4200.0,93.70336006412028,13.427787334014507,4200,0.11309999972581863,-0.011599999852478504,-1.0033999681472778
169,73018557,4182,4184,1,1,1.0,93.216003,-10.048,-10.048,0.4,93.214988,-9.554355,-14.899781,-0.495565,-0.549861,-2.0,,0.0,6.941947,2,4200.0,93.70336006412028,13.427787334014507,4299,0.10729999840259552,-0.028999999165534973,-0.994700014591217
170,73018557,4410,4393,1,1,1.0,89.856003,-9.952,-9.952,0.7,89.797429,-9.412777,-15.048326,1.614864,-0.165539,-2.0,,0.0,6.466408,2,4400.0,90.28941591272905,13.886755831057982,4400,0.10729999840259552,-0.04349999874830246,-0.9860000014305115
171,73018557,4486,4467,1,1,1.0,88.736008,-9.536,-9.536,1.4,88.652835,-9.272682,-15.06879,2.030394,-0.113965,-2.0,,0.0,6.324438,2,4500.0,89.13645598188403,14.017504005889535,4501,0.09570000320672989,-0.028999999165534973,-0.9860000014305115
172,73018557,4486,4467,1,1,1.0,88.736008,-9.536,-9.536,1.4,88.652835,-9.272682,-15.06879,2.030394,-0.113965,-2.0,,0.0,6.324438,2,4500.0,89.13645598188403,14.017504005889535,4599,0.07829999923706055,-0.02319999970495701,-0.9976000189781189
173,73018557,4714,4692,1,1,1.0,85.152,-8.224,-8.224,2.8,85.209147,-8.804705,-15.152124,1.722153,-0.300982,-2.0,,0.0,5.959298,2,4700.0,85.66283653139577,14.298520899609315,4700,0.1014999970793724,-0.03480000048875809,-0.9976000189781189
174,73018557,4714,4692,1,1,1.0,85.152,-8.224,-8.224,2.8,85.209147,-8.804705,-15.152124,1.722153,-0.300982,-2.0,,0.0,5.959298,2,4700.0,85.66283653139577,14.298520899609315,4799,0.10440000146627426,-0.03480000048875809,-1.0062999725341797
175,73018557,4942,4935,1,2,2.0,22.656,1.184,1.184,-0.1,22.470041,1.226243,0.99325,-0.991686,-0.002835,0.0,0.0,1.0,1.550172,2,4900.0,22.503475607930653,14.495192146419878,4900,0.1014999970793724,-0.05220000073313713,-0.9889000058174133
176,73018557,4942,4935,1,2,2.0,22.656,1.184,1.184,-0.1,22.470041,1.226243,0.99325,-0.991686,-0.002835,0.0,0.0,1.0,1.550172,2,4900.0,22.503475607930653,14.495192146419878,4999,0.09279999881982803,-0.014499999582767487,-0.9801999926567078
177,73018557,5094,5077,1,2,2.0,22.688002,1.088,1.088,-0.2,22.620993,1.074622,0.993207,-1.010341,0.005527,0.0,0.0,1.0,1.548718,2,5100.0,22.64650385266858,14.606269830918217,5100,0.08410000056028366,-0.026100000366568565,-0.9772999882698059
178,73018557,5094,5077,1,2,2.0,22.688002,1.088,1.088,-0.2,22.620993,1.074622,0.993207,-1.010341,0.005527,0.0,0.0,1.0,1.548718,2,5100.0,22.64650385266858,14.606269830918217,5199,0.08699999749660492,-0.008700000122189522,-0.9976000189781189
179,73018557,5322,5301,1,2,2.0,22.880001,1.184,1.184,0.2,22.848436,0.835884,1.005531,-1.060087,0.054134,0.0,0.0,1.0,1.548159,2,5300.0,22.8637208194019,14.758455688336921,5300,0.08699999749660492,-0.011599999852478504,-0.994700014591217
180,73018557,5322,5301,1,2,2.0,22.880001,1.184,1.184,0.2,22.848436,0.835884,1.005531,-1.060087,0.054134,0.0,0.0,1.0,1.548159,2,5300.0,22.8637208194019,14.758455688336921,5399,0.09860000014305115,-0.008700000122189522,-0.9772999882698059
181,73018557,5474,5429,1,2,2.0,22.144001,0.224,0.224,0.2,23.002767,0.690424,1.025836,-0.786485,0.07017,0.0,0.0,1.0,1.548028,2,5500.0,23.01312614479104,14.859399829977235,5500,0.09570000320672989,-0.03189999982714653,-0.9860000014305115
182,73018557,5474,5429,1,2,2.0,22.144001,0.224,0.224,0.2,23.002767,0.690424,1.025836,-0.786485,0.07017,0.0,0.0,1.0,1.548028,2,5500.0,23.01312614479104,14.859399829977235,5599,0.0812000036239624,0.0,-0.9801999926567078
183,73018557,5702,5685,1,2,2.0,22.624001,0.544,0.544,0.2,23.239161,0.586023,1.039522,-0.176202,-0.034483,0.0,0.0,1.0,1.546618,2,5700.0,23.24654871030214,15.025792406398994,5700,0.09279999881982803,-0.026100000366568565,-0.9918000102043152
184,73018557,5702,5685,1,2,2.0,22.624001,0.544,0.544,0.2,23.239161,0.586023,1.039522,-0.176202,-0.034483,0.0,0.0,1.0,1.546618,2,5700.0,23.24654871030214,15.025792406398994,5799,0.08990000188350677,-0.026100000366568565,-1.0033999681472778
185,73018557,5930,5915,1,2,2.0,23.200001,0.64,0.64,0.2,23.471939,0.574349,0.994825,-0.000447,-0.131243,0.0,0.0,1.0,1.542397,2,5900.0,23.47896499408613,15.217832373895954,5900,0.08990000188350677,-0.03189999982714653,-0.9976000189781189
186,73018557,5930,5915,1,2,2.0,23.200001,0.64,0.64,0.2,23.471939,0.574349,0.994825,-0.000447,-0.131243,0.0,0.0,1.0,1.542397,2,5900.0,23.47896499408613,15.217832373895954,5999,0.09279999881982803,-0.028999999165534973,-0.9889000058174133
187,73018557,6082,6058,1,2,2.0,23.392,0.64,0.64,0.1,23.620021,0.570731,0.952826,-0.059788,-0.142756,0.0,0.0,1.0,1.538793,2,6100.0,23.626915285639853,15.34970655572257,6100,0.09570000320672989,-0.05220000073313713,-0.9889000058174133
188,73018557,6082,6058,1,2,2.0,23.392,0.64,0.64,0.1,23.620021,0.570731,0.952826,-0.059788,-0.142756,0.0,0.0,1.0,1.538793,2,6100.0,23.626915285639853,15.34970655572257,6199,0.0812000036239624,-0.026100000366568565,-0.9860000014305115
189,73018557,6310,6277,1,2,2.0,23.744001,0.576,0.576,0.0,23.830948,0.542539,0.90487,-0.174322,-0.051253,0.0,0.0,1.0,1.534144,2,6300.0,23.837122962833096,15.533710003754537,6300,0.09279999881982803,-0.04639999940991402,-0.9860000014305115
190,73018557,6310,6277,1,2,2.0,23.744001,0.576,0.576,0.0,23.830948,0.542539,0.90487,-0.174322,-0.051253,0.0,0.0,1.0,1.534144,2,6300.0,23.837122962833096,15.533710003754537,6399,0.08990000188350677,-0.0406000018119812,-0.974399983882904
191,73018557,6462,6444,1,2,2.0,23.872002,0.48,0.48,0.0,23.967779,0.515701,0.897929,-0.161505,-0.001228,0.0,0.0,1.0,1.53288,2,6500.0,23.973326379838113,15.6357829706174,6500,0.08410000056028366,-0.03189999982714653,-0.9918000102043152
192,73018557,6462,6444,1,2,2.0,23.872002,0.48,0.48,0.0,23.967779,0.515701,0.897929,-0.161505,-0.001228,0.0,0.0,1.0,1.53288,2,6500.0,23.973326379838113,15.6357829706174,6599,0.07829999923706055,-0.04639999940991402,-1.000499963760376
193,73018557,6690,6690,1,2,2.0,24.096001,0.48,0.48,0.0,24.172938,0.495428,0.902625,-0.00744,0.013909,0.0,0.0,1.0,1.535795,2,6700.0,24.17801440265573,15.739690518591347,6700,0.09570000320672989,-0.017400000244379044,-0.9918000102043152
194,73018557,6690,6690,1,2,2.0,24.096001,0.48,0.48,0.0,24.172938,0.495428,0.902625,-0.00744,0.013909,0.0,0.0,1.0,1.535795,2,6700.0,24.17801440265573,15.739690518591347,6799,0.08990000188350677,-0.049300000071525574,-0.9889000058174133
195,73018557,6918,6925,1,2,2.0,24.352001,0.448,0.448,0.0,24.3794,0.508401,0.907952,0.10158,0.009681,0.0,0.0,1.0,1.542879,2,6900.0,24.384700447961237,15.801239112075542,6900,0.07829999923706055,-0.011599999852478504,-0.9860000014305115
196,73018557,6918,6925,1,2,2.0,24.352001,0.448,0.448,0.0,24.3794,0.508401,0.907952,0.10158,0.009681,0.0,0.0,1.0,1.542879,2,6900.0,24.384700447961237,15.801239112075542,6999,0.08990000188350677,-0.03189999982714653,-0.9976000189781189
197,73018557,7070,7060,1,2,2.0,24.480001,0.576,0.576,0.1,24.517632,0.522213,0.910665,0.056168,0.007986,0.0,0.0,1.0,1.548624,2,7100.0,24.52319280405374,15.831881722096519,7100,0.08990000188350677,-0.026100000366568565,-0.9889000058174133
198,73018557,7070,7060,1,2,2.0,24.480001,0.576,0.576,0.1,24.517632,0.522213,0.910665,0.056168,0.007986,0.0,0.0,1.0,1.548624,2,7100.0,24.52319280405374,15.831881722096519,7199,0.08990000188350677,-0.026100000366568565,-0.9830999970436096
199,73018557,7298,7289,1,2,2.0,24.768002,0.608,0.608,0.1,24.725519,0.506167,0.911345,-0.216891,-0.01156,0.0,0.0,1.0,1.557473,2,7300.0,24.730699441205658,15.875407791980983,7300,0.09860000014305115,-0.005799999926239252,-0.974399983882904
200,73018557,7298,7289,1,2,2.0,24.768002,0.608,0.608,0.1,24.725519,0.506167,0.911345,-0.216891,-0.01156,0.0,0.0,1.0,1.557473,2,7300.0,24.730699441205658,15.875407791980983,7399,0.09279999881982803,-0.028999999165534973,-0.9830999970436096
201,73018557,7526,7511,1,2,2.0,24.992001,0.384,0.384,-0.1,24.931602,0.431863,0.889754,-0.379273,-0.096568,0.0,0.0,1.0,1.564899,2,7500.0,24.935342065774297,15.931764286385256,7500,0.09279999881982803,-0.014499999582767487,-0.9801999926567078
202,73018557,7602,7588,1,2,2.0,25.056002,0.352,0.352,-0.1,24.998594,0.403896,0.87208,-0.350023,-0.135358,0.0,0.0,1.0,1.566675,2,7600.0,25.00185661017301,15.956464486891027,7601,0.07829999923706055,-0.014499999582767487,-0.974399983882904
203,73018557,7602,7588,1,2,2.0,25.056002,0.352,0.352,-0.1,24.998594,0.403896,0.87208,-0.350023,-0.135358,0.0,0.0,1.0,1.566675,2,7600.0,25.00185661017301,15.956464486891027,7699,0.07249999791383743,-0.04349999874830246,-0.9889000058174133
204,73018557,7830,7820,1,2,2.0,25.344002,0.288,0.288,-0.1,25.189236,0.349787,0.795827,-0.097399,-0.201836,0.0,0.0,1.0,1.565976,2,7800.0,25.191664518428812,16.085326978191237,7800,0.07249999791383743,-0.02319999970495701,-0.9772999882698059
205,73018557,7830,7820,1,2,2.0,25.344002,0.288,0.288,-0.1,25.189236,0.349787,0.795827,-0.097399,-0.201836,0.0,0.0,1.0,1.565976,2,7800.0,25.191664518428812,16.085326978191237,7899,0.0812000036239624,-0.026100000366568565,-0.9860000014305115
206,73018557,7982,7963,1,2,2.0,25.440001,0.288,0.288,-0.1,25.304809,0.349755,0.719277,0.08709,-0.306724,0.0,0.0,1.0,1.560239,2,8000.0,25.307225985605495,16.21854664573825,8000,0.07829999923706055,-0.026100000366568565,-0.9714999794960022
207,73018557,7982,7963,1,2,2.0,25.440001,0.288,0.288,-0.1,25.304809,0.349755,0.719277,0.08709,-0.306724,0.0,0.0,1.0,1.560239,2,8000.0,25.307225985605495,16.21854664573825,8099,0.06960000097751617,-0.026100000366568565,-0.994700014591217
208,73018557,8210,8161,1,2,2.0,25.760002,0.448,0.448,0.0,25.4497,0.382731,0.536994,0.151878,-0.497926,0.0,0.0,1.0,1.547887,2,8200.0,25.452577730131008,16.441574869483368,8200,0.06379999965429306,-0.028999999165534973,-1.0033999681472778
209,73018557,8210,8161,1,2,2.0,25.760002,0.448,0.448,0.0,25.4497,0.382731,0.536994,0.151878,-0.497926,0.0,0.0,1.0,1.547887,2,8200.0,25.452577730131008,16.441574869483368,8299,0.08410000056028366,-0.014499999582767487,-1.0091999769210815
210,73018557,8438,8432,1,1,1.0,24.288002,-7.936,-7.936,1.0,24.253039,-7.74669,-17.240478,2.095311,-0.143063,-2.0,,0.0,1.458031,2,8400.0,25.46018669789405,16.63410380163385,8400,0.07540000230073929,-0.04639999940991402,-1.0033999681472778
211,73018557,8438,8432,1,1,1.0,24.288002,-7.936,-7.936,1.0,24.253039,-7.74669,-17.240478,2.095311,-0.143063,-2.0,,0.0,1.458031,2,8400.0,25.46018669789405,16.63410380163385,8499,0.0812000036239624,-0.0203000009059906,-0.9801999926567078
212,73018557,8590,8595,1,1,1.0,21.504002,-7.36,-7.36,1.4,21.629645,-7.406004,-17.271356,2.348235,-0.064982,-2.0,,0.0,1.294172,2,8600.0,22.86242415130209,16.713114640094204,8600,0.0812000036239624,-0.02319999970495701,-0.9801999926567078
213,73018557,8590,8595,1,1,1.0,21.504002,-7.36,-7.36,1.4,21.629645,-7.406004,-17.271356,2.348235,-0.064982,-2.0,,0.0,1.294172,2,8600.0,22.86242415130209,16.713114640094204,8699,0.07249999791383743,-0.008700000122189522,-0.974399983882904
214,73018557,8818,8795,1,1,1.0,17.664001,-6.752,-6.752,1.7,17.689353,-6.859761,-17.288556,2.376485,-0.03977,-2.0,,0.0,1.056039,2,8800.0,18.972863003135032,16.750662617573784,8800,0.07829999923706055,-0.011599999852478504,-0.9889000058174133
215,73018557,8818,8795,1,1,1.0,17.664001,-6.752,-6.752,1.7,17.689353,-6.859761,-17.288556,2.376485,-0.03977,-2.0,,0.0,1.056039,2,8800.0,18.972863003135032,16.750662617573784,8899,0.07829999923706055,-0.005799999926239252,-0.9830999970436096
216,73018557,9046,9043,1,1,1.0,13.728001,-6.336,-6.336,1.8,13.745548,-6.334796,-17.301232,2.239482,-0.013738,-2.0,,0.0,0.8197,2,9000.0,15.135049725122148,16.76899841405392,9000,0.07829999923706055,0.014499999582767487,-0.9830999970436096
217,73018557,9046,9043,1,1,1.0,13.728001,-6.336,-6.336,1.8,13.745548,-6.334796,-17.301232,2.239482,-0.013738,-2.0,,0.0,0.8197,2,9000.0,15.135049725122148,16.76899841405392,9099,0.06960000097751617,0.0,-0.9830999970436096
218,73018557,9198,9199,1,1,1.0,11.104,-6.048,-6.048,1.8,11.115309,-5.996809,-17.30402,2.216379,-0.007028,-2.0,,0.0,0.662493,2,9200.0,12.629798586991084,16.778002182664572,9200,0.08699999749660492,0.005799999926239252,-0.9889000058174133
219,73018557,9198,9199,1,1,1.0,11.104,-6.048,-6.048,1.8,11.115309,-5.996809,-17.30402,2.216379,-0.007028,-2.0,,0.0,0.662493,2,9200.0,12.629798586991084,16.778002182664572,9299,0.07540000230073929,0.0,-0.9889000058174133
220,73018557,9426,9418,1,2,2.0,25.792002,0.352,0.352,-0.1,25.484908,0.350252,-0.220355,-0.010875,0.063823,0.0,0.0,1.0,1.517486,2,9400.0,25.487314731685018,16.794163504638593,9400,0.07829999923706055,0.002899999963119626,-0.9889000058174133
221,73018557,9426,9418,1,2,2.0,25.792002,0.352,0.352,-0.1,25.484908,0.350252,-0.220355,-0.010875,0.063823,0.0,0.0,1.0,1.517486,2,9400.0,25.487314731685018,16.794163504638593,9499,0.07829999923706055,0.017400000244379044,-0.994700014591217
222,73018557,9578,9571,1,2,2.0,25.664001,0.352,0.352,-0.1,25.453466,0.350922,-0.19056,0.02003,0.120406,0.0,0.0,1.0,1.514088,2,9600.0,25.455884931843165,16.811087598607212,9600,0.0812000036239624,0.014499999582767487,-0.9889000058174133
223,73018557,9578,9571,1,2,2.0,25.664001,0.352,0.352,-0.1,25.453466,0.350922,-0.19056,0.02003,0.120406,0.0,0.0,1.0,1.514088,2,9600.0,25.455884931843165,16.811087598607212,9699,0.08410000056028366,0.03480000048875809,-0.9889000058174133
224,73018557,9806,9793,1,2,2.0,25.6,0.352,0.352,0.0,25.415019,0.361263,-0.154033,0.07149,0.03159,0.0,0.0,1.0,1.506788,2,9800.0,25.41758646538908,16.867017125169568,9800,0.06960000097751617,0.014499999582767487,-0.994700014591217
225,73018557,9806,9793,1,2,2.0,25.6,0.352,0.352,0.0,25.415019,0.361263,-0.154033,0.07149,0.03159,0.0,0.0,1.0,1.506788,2,9800.0,25.41758646538908,16.867017125169568,9899,0.08410000056028366,0.03480000048875809,-1.0091999769210815
226,73018557,10034,10016,1,2,2.0,25.408001,0.384,0.384,0.0,25.382359,0.382661,-0.112003,0.110909,0.254103,0.0,0.0,1.0,1.494253,2,10000.0,25.385243308776893,16.98665420112926,10000,0.08699999749660492,0.017400000244379044,-0.9918000102043152
227,73018557,10034,10016,1,2,2.0,25.408001,0.384,0.384,0.0,25.382359,0.382661,-0.112003,0.110909,0.254103,0.0,0.0,1.0,1.494253,2,10000.0,25.385243308776893,16.98665420112926,10099,0.07249999791383743,0.026100000366568565,-0.974399983882904
228,73018557,10186,10170,1,2,2.0,25.408001,0.416,0.416,0.0,25.371686,0.400443,-0.027491,0.120775,0.278812,0.0,0.0,1.0,1.484564,2,10200.0,25.374845912415804,17.090328204105717,10200,0.07829999923706055,0.0203000009059906,-0.9714999794960022
229,73018557,10186,10170,1,2,2.0,25.408001,0.416,0.416,0.0,25.371686,0.400443,-0.027491,0.120775,0.278812,0.0,0.0,1.0,1.484564,2,10200.0,25.374845912415804,17.090328204105717,10299,0.07249999791383743,0.03189999982714653,-0.9628000259399414
230,73018557,10414,10418,1,3,3.0,65.504005,-9.536,-9.536,1.2,65.489547,-9.549485,-18.321811,1.84153,-0.152451,-2.0,,0.0,3.793829,2,10400.0,66.1821231907109,17.26212409678981,10400,0.06379999965429306,0.028999999165534973,-0.9801999926567078
231,73018557,10414,10418,1,3,3.0,65.504005,-9.536,-9.536,1.2,65.489547,-9.549485,-18.321811,1.84153,-0.152451,-2.0,,0.0,3.793829,2,10400.0,66.1821231907109,17.26212409678981,10499,0.06669999659061432,0.037700001150369644,-0.9889000058174133
232,73018557,10642,10615,1,3,3.0,61.280003,-9.088,-9.088,1.2,61.303025,-9.134186,-18.397963,1.82895,-0.135338,-2.0,,0.0,3.517094,2,10600.0,61.97978886728496,17.430021773657455,10600,0.0608999989926815,0.03189999982714653,-0.994700014591217
233,73018557,10642,10615,1,3,3.0,61.280003,-9.088,-9.088,1.2,61.303025,-9.134186,-18.397963,1.82895,-0.135338,-2.0,,0.0,3.517094,2,10600.0,61.97978886728496,17.430021773657455,10699,0.03480000048875809,0.07249999791383743,-0.9656999707221985
234,73018557,10794,10765,1,3,3.0,58.592003,-8.768,-8.768,1.3,58.504163,-8.851861,-18.419004,1.884372,0.00086,-2.0,,0.0,3.332975,2,10800.0,59.17003068694396,17.553135862105176,10800,0.014499999582767487,0.028999999165534973,-0.9628000259399414
235,73018557,10794,10765,1,3,3.0,58.592003,-8.768,-8.768,1.3,58.504163,-8.851861,-18.419004,1.884372,0.00086,-2.0,,0.0,3.332975,2,10800.0,59.17003068694396,17.553135862105176,10899,-0.014499999582767487,0.037700001150369644,-0.994700014591217
236,73018557,11022,11028,1,4,4.0,21.952002,-0.192,-0.192,0.1,22.090812,-0.150441,-2.514966,-0.693385,0.069799,-2.0,,0.0,1.242622,2,11000.0,22.091324254417728,17.777579988121893,11000,-0.005799999926239252,0.026100000366568565,-1.020799994468689
237,73018557,11022,11028,1,4,4.0,21.952002,-0.192,-0.192,0.1,22.090812,-0.150441,-2.514966,-0.693385,0.069799,-2.0,,0.0,1.242622,2,11000.0,22.091324254417728,17.777579988121893,11099,0.03480000048875809,0.011599999852478504,-0.9976000189781189
238,73018557,11250,11247,1,4,4.0,21.664001,-0.448,-0.448,-1.0,21.523317,-0.323174,-2.453732,-0.86371,0.165557,-2.0,,0.0,1.195625,2,11200.0,21.52574310254503,18.00172880292734,11200,-0.0203000009059906,0.0,-0.9772999882698059
239,73018557,11250,11247,1,4,4.0,21.664001,-0.448,-0.448,-1.0,21.523317,-0.323174,-2.453732,-0.86371,0.165557,-2.0,,0.0,1.195625,2,11200.0,21.52574310254503,18.00172880292734,11299,-0.037700001150369644,0.028999999165534973,-0.974399983882904
240,73018557,11402,11397,1,4,4.0,21.216002,-0.416,-0.416,-1.5,21.153719,-0.477104,-2.411639,-1.207125,0.116604,-2.0,,0.0,1.167146,2,11400.0,21.159098651827705,18.124312639549807,11400,-0.07249999791383743,0.05220000073313713,-0.9830999970436096
241,73018557,11402,11397,1,4,4.0,21.216002,-0.416,-0.416,-1.5,21.153719,-0.477104,-2.411639,-1.207125,0.116604,-2.0,,0.0,1.167146,2,11400.0,21.159098651827705,18.124312639549807,11499,-0.11020000278949738,0.02319999970495701,-0.9860000014305115
242,73018557,11630,11613,1,4,4.0,20.448002,-0.64,-0.64,-2.2,20.609558,-0.851976,-2.367817,-2.117737,0.022877,-2.0,,0.0,1.130661,2,11600.0,20.62716034891715,18.227884396826283,11600,-0.13920000195503235,0.0,-1.000499963760376
243,73018557,11630,11613,1,4,4.0,20.448002,-0.64,-0.64,-2.2,20.609558,-0.851976,-2.367817,-2.117737,0.022877,-2.0,,0.0,1.130661,2,11600.0,20.62716034891715,18.227884396826283,11699,-0.14499999582767487,0.0,-1.000499963760376
244,73018557,11782,11757,1,4,4.0,20.160002,-1.152,-1.152,-2.6,20.248677,-1.218015,-2.39097,-2.665031,-0.180192,-2.0,,0.0,1.10967,2,11800.0,20.285277439329096,18.24747627673092,11800,-0.15080000460147858,0.0406000018119812,-0.9918000102043152
245,73018557,11782,11757,1,4,4.0,20.160002,-1.152,-1.152,-2.6,20.248677,-1.218015,-2.39097,-2.665031,-0.180192,-2.0,,0.0,1.10967,2,11800.0,20.285277439329096,18.24747627673092,11899,-0.14499999582767487,0.005799999926239252,-0.9889000058174133
246,73018557,12010,11991,1,4,4.0,19.68,-1.888,-1.888,-3.0,19.690448,-1.877631,-2.515148,-3.015379,-0.30758,-2.0,,0.0,1.077651,2,12000.0,19.779768467119755,18.271637107004032,12000,-0.13920000195503235,0.017400000244379044,-0.9860000014305115
247,73018557,12010,11991,1,4,4.0,19.68,-1.888,-1.888,-3.0,19.690448,-1.877631,-2.515148,-3.015379,-0.30758,-2.0,,0.0,1.077651,2,12000.0,19.779768467119755,18.271637107004032,12099,-0.121799997985363,0.0,-0.9918000102043152
248,73018557,12245,12234,1,4,4.0,19.168001,-2.72,-2.72,-3.4,19.080644,-2.56584,-2.692953,-2.743628,-0.546682,-2.0,,0.0,1.043238,2,12200.0,19.252389731156388,18.289828399655686,12200,-0.1362999975681305,0.0,-0.9860000014305115
249,73018557,12245,12234,1,4,4.0,19.168001,-2.72,-2.72,-3.4,19.080644,-2.56584,-2.692953,-2.743628,-0.546682,-2.0,,0.0,1.043238,2,12200.0,19.252389731156388,18.289828399655686,12299,-0.1362999975681305,0.005799999926239252,-0.9860000014305115
250,73018557,12397,12406,1,4,4.0,18.624001,-2.976,-2.976,-3.3,18.65648,-2.955487,-2.898332,-2.384971,-0.745888,-2.0,,0.0,1.019619,2,12400.0,18.889127809339662,18.297501321572074,12400,-0.15369999408721924,0.0,-0.9860000014305115
251,73018557,12397,12406,1,4,4.0,18.624001,-2.976,-2.976,-3.3,18.65648,-2.955487,-2.898332,-2.384971,-0.745888,-2.0,,0.0,1.019619,2,12400.0,18.889127809339662,18.297501321572074,12499,-0.1624000072479248,0.037700001150369644,-0.9860000014305115
252,73018557,12625,12604,1,4,4.0,17.824001,-3.392,-3.392,-3.2,17.961693,-3.450597,-3.162511,-1.982575,-0.346942,-2.0,,0.0,0.981388,2,12600.0,18.29013491154885,18.30233607910429,12600,-0.1624000072479248,0.03189999982714653,-0.994700014591217
253,73018557,12625,12604,1,4,4.0,17.824001,-3.392,-3.392,-3.2,17.961693,-3.450597,-3.162511,-1.982575,-0.346942,-2.0,,0.0,0.981388,2,12600.0,18.29013491154885,18.30233607910429,12699,-0.1624000072479248,0.0203000009059906,-0.9772999882698059
254,73018557,12777,12748,1,4,4.0,17.312,-3.744,-3.744,-3.1,17.474558,-3.732052,-3.239186,-1.706841,-0.197106,-2.0,,0.0,0.956309,2,12800.0,17.868642629647837,18.2729201544689,12800,-0.15369999408721924,-0.014499999582767487,-0.9714999794960022
255,73018557,12777,12748,1,4,4.0,17.312,-3.744,-3.744,-3.1,17.474558,-3.732052,-3.239186,-1.706841,-0.197106,-2.0,,0.0,0.956309,2,12800.0,17.868642629647837,18.2729201544689,12899,-0.15369999408721924,0.002899999963119626,-0.9772999882698059
256,73018557,13005,12965,1,4,4.0,16.480001,-4.096,-4.096,-2.9,16.727115,-4.056459,-3.309199,-1.095655,-0.092829,-2.0,,0.0,0.923418,2,13000.0,17.211950378789325,18.114347998414587,13000,-0.14790000021457672,0.011599999852478504,-0.9801999926567078
257,73018557,13005,12965,1,4,4.0,16.480001,-4.096,-4.096,-2.9,16.727115,-4.056459,-3.309199,-1.095655,-0.092829,-2.0,,0.0,0.923418,2,13000.0,17.211950378789325,18.114347998414587,13099,-0.1362999975681305,0.011599999852478504,-1.000499963760376
258,73018557,13233,13234,1,4,4.0,15.616001,-4.352,-4.352,-2.6,15.973676,-4.218681,-3.263756,-0.317662,0.362507,-2.0,,0.0,0.894375,2,13200.0,16.52136781058811,17.860154856743534,13200,-0.14499999582767487,0.03189999982714653,-0.9918000102043152
259,73018557,13233,13234,1,4,4.0,15.616001,-4.352,-4.352,-2.6,15.973676,-4.218681,-3.263756,-0.317662,0.362507,-2.0,,0.0,0.894375,2,13200.0,16.52136781058811,17.860154856743534,13299,-0.14790000021457672,0.03189999982714653,-1.0033999681472778
260,73018557,13385,13369,1,4,4.0,15.072001,-4.128,-4.128,-2.1,15.488722,-4.232457,-3.100475,0.107297,0.680875,-2.0,,0.0,0.876996,2,13400.0,16.056593706329277,17.661109058650208,13400,-0.15080000460147858,0.014499999582767487,-1.0120999813079834
261,73018557,13385,13369,1,4,4.0,15.072001,-4.128,-4.128,-2.1,15.488722,-4.232457,-3.100475,0.107297,0.680875,-2.0,,0.0,0.876996,2,13400.0,16.056593706329277,17.661109058650208,13499,-0.15080000460147858,0.011599999852478504,-1.0062999725341797
262,73018557,13613,13613,1,4,4.0,14.368001,-4.128,-4.128,-1.7,14.821296,-4.159231,-2.741137,0.496523,0.851926,-2.0,,0.0,0.854085,2,13600.0,15.393830505464747,17.353420327016632,13600,-0.13920000195503235,0.057999998331069946,-0.9889000058174133
263,73018557,13613,13613,1,4,4.0,14.368001,-4.128,-4.128,-1.7,14.821296,-4.159231,-2.741137,0.496523,0.851926,-2.0,,0.0,0.854085,2,13600.0,15.393830505464747,17.353420327016632,13699,-0.11890000104904175,0.0406000018119812,-0.9570000171661377
264,73018557,13841,13838,1,4,4.0,13.664001,-3.936,-3.936,-1.2,14.241306,-4.024913,-2.345223,0.650772,0.859682,-2.0,,0.0,0.837052,2,13800.0,14.799145963304943,17.013645508283833,13800,-0.12759999930858612,0.04349999874830246,-0.9772999882698059
265,73018557,13841,13838,1,4,4.0,13.664001,-3.936,-3.936,-1.2,14.241306,-4.024913,-2.345223,0.650772,0.859682,-2.0,,0.0,0.837052,2,13800.0,14.799145963304943,17.013645508283833,13899,-0.1362999975681305,0.057999998331069946,-0.9772999882698059
266,73018557,13993,13976,1,4,4.0,13.248001,-3.872,-3.872,-1.0,13.90393,-3.921117,-2.099375,0.718101,0.755245,-2.0,,0.0,0.830808,2,14000.0,14.446259999480453,16.735431050254693,14000,-0.15080000460147858,0.05510000139474869,-1.020799994468689
267,73018557,13993,13976,1,4,4.0,13.248001,-3.872,-3.872,-1.0,13.90393,-3.921117,-2.099375,0.718101,0.755245,-2.0,,0.0,0.830808,2,14000.0,14.446259999480453,16.735431050254693,14099,-0.18559999763965607,0.057999998331069946,-1.0033999681472778
268,73018557,14221,14216,1,4,4.0,12.672001,-3.744,-3.744,-0.8,13.464233,-3.740688,-1.750766,0.882614,0.835854,-2.0,,0.0,0.827377,2,14200.0,13.974201837372789,16.273395320392034,14200,-0.20010000467300415,0.07249999791383743,-1.0062999725341797
269,73018557,14221,14216,1,4,4.0,12.672001,-3.744,-3.744,-0.8,13.464233,-3.740688,-1.750766,0.882614,0.835854,-2.0,,0.0,0.827377,2,14200.0,13.974201837372789,16.273395320392034,14299,-0.20589999854564667,0.06669999659061432,-0.994700014591217
270,73018557,14373,14364,1,4,4.0,12.352,-3.616,-3.616,-0.6,13.218444,-3.593592,-1.477005,1.062219,0.953905,-2.0,,0.0,0.828453,2,14400.0,13.698217593672544,15.955575029603368,14400,-0.21459999680519104,0.09860000014305115,-0.9860000014305115
271,73018557,14373,14364,1,4,4.0,12.352,-3.616,-3.616,-0.6,13.218444,-3.593592,-1.477005,1.062219,0.953905,-2.0,,0.0,0.828453,2,14400.0,13.698217593672544,15.955575029603368,14499,-0.17980000376701355,0.07249999791383743,-0.994700014591217
272,73018557,14601,14569,1,4,4.0,11.968,-3.392,-3.392,-0.4,12.932603,-3.313781,-1.026618,1.391638,1.00587,-2.0,,0.0,0.834449,2,14600.0,13.350406917827263,15.498374376384897,14600,-0.16529999673366547,0.09860000014305115,-0.994700014591217
273,73018557,14601,14569,1,4,4.0,11.968,-3.392,-3.392,-0.4,12.932603,-3.313781,-1.026618,1.391638,1.00587,-2.0,,0.0,0.834449,2,14600.0,13.350406917827263,15.498374376384897,14699,-0.1624000072479248,0.11020000278949738,-0.9889000058174133
274,73018557,14753,14746,1,4,4.0,11.712001,-3.264,-3.264,-0.3,12.799412,-3.089824,-0.732507,1.529234,0.865516,-1.0,,0.0,0.841329,2,14800.0,13.167078639421883,15.213325583689615,14800,-0.14499999582767487,0.10440000146627426,-0.9685999751091003
275,73018557,14753,14746,1,4,4.0,11.712001,-3.264,-3.264,-0.3,12.799412,-3.089824,-0.732507,1.529234,0.865516,-1.0,,0.0,0.841329,2,14800.0,13.167078639421883,15.213325583689615,14899,-0.13339999318122864,0.14790000021457672,-0.9570000171661377
276,73018557,14981,14959,1,4,4.0,12.768001,-2.624,-2.624,-0.3,12.66313,-2.758524,-0.537959,1.282158,-0.070128,-1.0,,0.0,0.857538,2,15000.0,12.960104785667284,14.766844151512819,15000,-0.12759999930858612,0.15950000286102295,-0.9337999820709229
277,73018557,15057,15039,1,4,4.0,12.928,-2.528,-2.528,-0.3,12.621346,-2.667773,-0.567206,1.101568,-0.293744,-1.0,,0.0,0.863439,2,15100.0,12.900208821226308,14.61753059567613,15100,-0.13050000369548798,0.17110000550746918,-0.9453999996185303
278,73018557,15057,15039,1,4,4.0,12.928,-2.528,-2.528,-0.3,12.621346,-2.667773,-0.567206,1.101568,-0.293744,-1.0,,0.0,0.863439,2,15100.0,12.900208821226308,14.61753059567613,15199,-0.11309999972581863,0.1768999993801117,-0.9772999882698059
279,73018557,15285,15272,1,4,4.0,12.768001,-2.464,-2.464,-0.4,12.474421,-2.481219,-0.713341,0.55129,-0.224402,-1.0,,0.0,0.879253,2,15300.0,12.718790312415798,14.187521680335466,15300,-0.07540000230073929,0.19140000641345978,-0.9685999751091003
280,73018557,15285,15272,1,4,4.0,12.768001,-2.464,-2.464,-0.4,12.474421,-2.481219,-0.713341,0.55129,-0.224402,-1.0,,0.0,0.879253,2,15300.0,12.718790312415798,14.187521680335466,15399,-0.07540000230073929,0.17110000550746918,-0.994700014591217
281,73018557,15513,15514,1,4,4.0,12.512001,-2.368,-2.368,-0.4,12.306802,-2.403011,-0.722402,0.169459,0.2112,-1.0,,0.0,0.890914,2,15500.0,12.539211990126212,13.813681230736075,15500,-0.08699999749660492,0.19429999589920044,-0.9772999882698059
282,73018557,15513,15514,1,4,4.0,12.512001,-2.368,-2.368,-0.4,12.306802,-2.403011,-0.722402,0.169459,0.2112,-1.0,,0.0,0.890914,2,15500.0,12.539211990126212,13.813681230736075,15599,-0.07249999791383743,0.19429999589920044,-0.9570000171661377
283,73018557,15666,15668,1,4,4.0,12.416,-2.368,-2.368,-0.4,12.203314,-2.388421,-0.633926,0.043178,0.322573,-1.0,,0.0,0.896383,2,15700.0,12.434847303277873,13.613950733112967,15700,-0.08410000056028366,0.1362999975681305,-0.994700014591217
284,73018557,15666,15668,1,4,4.0,12.416,-2.368,-2.368,-0.4,12.203314,-2.388421,-0.633926,0.043178,0.322573,-1.0,,0.0,0.896383,2,15700.0,12.434847303277873,13.613950733112967,15799,-0.08410000056028366,0.2581000030040741,-0.9830999970436096
285,73018557,15894,15884,1,4,4.0,12.256001,-2.368,-2.368,-0.5,12.074353,-2.376138,-0.504722,0.122806,0.230636,-1.0,,0.0,0.902785,2,15900.0,12.305934835015705,13.374560941974003,15900,-0.07249999791383743,0.18850000202655792,-1.0033999681472778
286,73018557,15894,15884,1,4,4.0,12.256001,-2.368,-2.368,-0.5,12.074353,-2.376138,-0.504722,0.122806,0.230636,-1.0,,0.0,0.902785,2,15900.0,12.305934835015705,13.374560941974003,15999,-0.0406000018119812,0.2378000020980835,-0.9830999970436096
287,73018557,16122,16128,1,4,4.0,12.224001,-2.304,-2.304,-0.4,11.970258,-2.30746,-0.409428,0.521567,0.202548,-1.0,,0.0,0.90857,2,16100.0,12.19062952591719,13.174832979297136,16100,0.005799999926239252,0.21170000731945038,-0.9424999952316284
288,73018557,16122,16128,1,4,4.0,12.224001,-2.304,-2.304,-0.4,11.970258,-2.30746,-0.409428,0.521567,0.202548,-1.0,,0.0,0.90857,2,16100.0,12.19062952591719,13.174832979297136,16199,-0.011599999852478504,0.26969999074935913,-0.9656999707221985
289,73018557,16274,16255,1,4,4.0,12.256001,-2.24,-2.24,-0.4,11.912166,-2.200358,-0.359354,0.897253,0.120142,-1.0,,0.0,0.912721,2,16300.0,12.113681279434422,13.051267583412674,16300,-0.03480000048875809,0.2784000039100647,-1.000499963760376
290,73018557,16274,16255,1,4,4.0,12.256001,-2.24,-2.24,-0.4,11.912166,-2.200358,-0.359354,0.897253,0.120142,-1.0,,0.0,0.912721,2,16300.0,12.113681279434422,13.051267583412674,16399,-0.03480000048875809,0.2784000039100647,-0.974399983882904
291,73018557,16502,16488,1,4,4.0,12.256001,-1.952,-1.952,-0.3,11.83494,-1.928088,-0.324028,1.486054,0.040756,-1.0,,0.0,0.920176,2,16500.0,11.990968607220353,12.861604736485194,16500,-0.026100000366568565,0.30160000920295715,-1.0498000383377075
292,73018557,16502,16488,1,4,4.0,12.256001,-1.952,-1.952,-0.3,11.83494,-1.928088,-0.324028,1.486054,0.040756,-1.0,,0.0,0.920176,2,16500.0,11.990968607220353,12.861604736485194,16599,-0.005799999926239252,0.37700000405311584,-1.0353000164031982
293,73018557,16654,16646,1,4,4.0,12.224001,-1.664,-1.664,-0.4,11.786515,-1.674427,-0.31354,1.845256,0.027646,-1.0,,0.0,0.926507,2,16700.0,11.904857900183185,12.721452725127818,16700,-0.002899999963119626,0.35089999437332153,-0.9801999926567078
294,73018557,16654,16646,1,4,4.0,12.224001,-1.664,-1.664,-0.4,11.786515,-1.674427,-0.31354,1.845256,0.027646,-1.0,,0.0,0.926507,2,16700.0,11.904857900183185,12.721452725127818,16799,0.028999999165534973,0.38280001282691956,-0.9424999952316284
295,73018557,16882,16863,1,4,4.0,12.192,-1.216,-1.216,-0.4,11.716095,-1.197282,-0.304265,2.326829,0.018754,-1.0,,0.0,0.93777,2,16900.0,11.777111965017102,12.493569851882658,16900,0.011599999852478504,0.3393000066280365,-0.9222000241279602
296,73018557,16882,16863,1,4,4.0,12.192,-1.216,-1.216,-0.4,11.716095,-1.197282,-0.304265,2.326829,0.018754,-1.0,,0.0,0.93777,2,16900.0,11.777111965017102,12.493569851882658,16999,-0.002899999963119626,0.36250001192092896,-0.8989999890327454
297,73018557,17110,17113,1,4,4.0,12.128,-0.64,-0.64,-0.3,11.647523,-0.623889,-0.296596,2.672976,0.019686,-1.0,,0.0,0.950308,2,17100.0,11.66422005621679,12.256576815095736,17100,-0.026100000366568565,0.37119999527931213,-0.930899977684021
298,73018557,17110,17113,1,4,4.0,12.128,-0.64,-0.64,-0.3,11.647523,-0.623889,-0.296596,2.672976,0.019686,-1.0,,0.0,0.950308,2,17100.0,11.66422005621679,12.256576815095736,17199,-0.0406000018119812,0.37119999527931213,-0.9830999970436096
299,73018557,17262,17268,1,4,4.0,12.064,-0.192,-0.192,-0.3,11.60284,-0.207136,-0.291108,2.794091,0.023295,-1.0,,0.0,0.959189,2,17300.0,11.60468876739467,12.096510698100166,17300,-0.02319999970495701,0.31029999256134033,-0.9860000014305115
300,73018557,17262,17268,1,4,4.0,12.064,-0.192,-0.192,-0.3,11.60284,-0.207136,-0.291108,2.794091,0.023295,-1.0,,0.0,0.959189,2,17300.0,11.60468876739467,12.096510698100166,17399,0.05220000073313713,0.2928999960422516,-0.951200008392334
301,73018557,17490,17471,1,4,4.0,11.968,0.448,0.448,-0.3,11.537629,0.435797,-0.281943,2.821372,0.015811,-1.0,,0.0,0.973005,2,17500.0,11.545856484767599,11.857728377552018,17500,0.014499999582767487,0.4465999901294708,-0.9889000058174133
302,73018557,17490,17471,1,4,4.0,11.968,0.448,0.448,-0.3,11.537629,0.435797,-0.281943,2.821372,0.015811,-1.0,,0.0,0.973005,2,17500.0,11.545856484767599,11.857728377552018,17599,0.017400000244379044,0.3799000084400177,-1.0062999725341797
303,73018557,17718,17715,1,4,4.0,11.84,1.056,1.056,-0.3,11.473667,1.073357,-0.281483,2.766565,-0.005563,-1.0,,0.0,0.987132,2,17700.0,11.523763694051437,11.623234785216162,17700,0.005799999926239252,0.31610000133514404,-0.974399983882904
304,73018557,17718,17715,1,4,4.0,11.84,1.056,1.056,-0.3,11.473667,1.073357,-0.281483,2.766565,-0.005563,-1.0,,0.0,0.987132,2,17700.0,11.523763694051437,11.623234785216162,17799,0.05510000139474869,0.35089999437332153,-0.9570000171661377
305,73018557,17870,17859,1,4,4.0,11.744,1.504,1.504,-0.3,11.431024,1.491012,-0.277809,2.728044,0.024668,-1.0,,0.0,0.997593,2,17900.0,11.527854374198176,11.4586048619026,17900,0.0608999989926815,0.39730000495910645,-0.9830999970436096
306,73018557,17870,17859,1,4,4.0,11.744,1.504,1.504,-0.3,11.431024,1.491012,-0.277809,2.728044,0.024668,-1.0,,0.0,0.997593,2,17900.0,11.527854374198176,11.4586048619026,17999,0.0203000009059906,0.3073999881744385,-0.9830999970436096
307,73018557,18098,18053,1,4,4.0,11.584001,2.112,2.112,-0.3,11.369289,2.10668,-0.259884,2.67302,0.074527,-1.0,,0.0,1.014491,2,18100.0,11.56282115177438,11.20688995762407,18100,0.05510000139474869,0.4059999883174896,-0.9599000215530396
308,73018557,18098,18053,1,4,4.0,11.584001,2.112,2.112,-0.3,11.369289,2.10668,-0.259884,2.67302,0.074527,-1.0,,0.0,1.014491,2,18100.0,11.56282115177438,11.20688995762407,18199,0.03480000048875809,0.33059999346733093,-1.0033999681472778
309,73018557,18326,18322,1,8,8.0,8.992001,1.952,1.952,-1.6,10.069122,1.770338,-9.926557,-1.740339,0.566276,-2.0,,0.0,0.91785,2,18300.0,10.223566622521124,10.970335022062429,18300,0.03480000048875809,0.33640000224113464,-0.951200008392334
310,73018557,18326,18322,1,8,8.0,8.992001,1.952,1.952,-1.6,10.069122,1.770338,-9.926557,-1.740339,0.566276,-2.0,,0.0,0.91785,2,18300.0,10.223566622521124,10.970335022062429,18399,0.08990000188350677,0.2842000126838684,-0.9222000241279602
311,73018557,18478,18464,1,8,8.0,7.392,1.152,1.152,-3.9,8.572934,1.509353,-9.761537,-1.651062,0.506142,-2.0,,0.0,0.7914,2,18500.0,8.704788558429494,10.832618145059389,18500,0.03480000048875809,0.41179999709129333,-0.9628000259399414
312,73018557,18478,18464,1,8,8.0,7.392,1.152,1.152,-3.9,8.572934,1.509353,-9.761537,-1.651062,0.506142,-2.0,,0.0,0.7914,2,18500.0,8.704788558429494,10.832618145059389,18599,0.03189999982714653,0.42340001463890076,-0.9541000127792358
313,73018557,18706,18691,1,8,8.0,8.288,1.344,1.344,-3.8,6.370213,1.178938,-9.574684,-1.286884,0.307193,-2.0,,0.0,0.597054,2,18700.0,6.478387798921348,10.669408462216149,18700,0.05220000073313713,0.33640000224113464,-0.9628000259399414
314,73018557,18782,18765,1,8,8.0,7.456,1.376,1.376,-3.8,5.644152,1.082212,-9.531772,-1.266679,0.262199,-2.0,,0.0,0.531517,2,18800.0,5.746967427439275,10.618949158728695,18801,0.04349999874830246,0.31029999256134033,-0.9714999794960022
315,73018557,18782,18765,1,8,8.0,7.456,1.376,1.376,-3.8,5.644152,1.082212,-9.531772,-1.266679,0.262199,-2.0,,0.0,0.531517,2,18800.0,5.746967427439275,10.618949158728695,18899,0.06379999965429306,0.3537999987602234,-0.930899977684021
316,73018557,19238,19214,1,11,11.0,14.080001,2.24,2.24,3.3,13.724974,2.385302,-11.502382,6.56376,-0.721059,-2.0,,0.0,1.326995,2,19200.0,13.93070626105798,10.342898051612854,19200,0.008700000122189522,0.2870999872684479,-0.9889000058174133
317,73018557,19238,19214,1,11,11.0,14.080001,2.24,2.24,3.3,13.724974,2.385302,-11.502382,6.56376,-0.721059,-2.0,,0.0,1.326995,2,19200.0,13.93070626105798,10.342898051612854,19299,0.017400000244379044,0.26100000739097595,-1.0266000032424927
318,73018557,19390,19391,1,11,11.0,12.256001,3.168,3.168,2.8,11.959806,3.379937,-11.721655,6.494177,-0.721801,-2.0,,0.0,1.16335,2,19400.0,12.428231317512763,10.28048824515408,19400,0.06379999965429306,0.22910000383853912,-1.0149999856948853
319,73018557,19390,19391,1,11,11.0,12.256001,3.168,3.168,2.8,11.959806,3.379937,-11.721655,6.494177,-0.721801,-2.0,,0.0,1.16335,2,19400.0,12.428231317512763,10.28048824515408,19499,0.11020000278949738,0.17980000376701355,-1.0062999725341797
320,73018557,19618,19609,1,11,11.0,8.8,4.64,4.64,2.8,9.249562,4.810516,-12.050022,6.063211,-0.716628,-2.0,,0.0,0.90355,2,19600.0,10.425711552603975,10.236912179735487,19600,0.1014999970793724,0.16820000112056732,-0.9570000171661377
321,73018557,19618,19609,1,11,11.0,8.8,4.64,4.64,2.8,9.249562,4.810516,-12.050022,6.063211,-0.716628,-2.0,,0.0,0.90355,2,19600.0,10.425711552603975,10.236912179735487,19699,0.08699999749660492,0.14499999582767487,-0.9251000285148621
322,73018557,19770,19753,1,9,9.0,14.528001,-1.216,-1.216,-1.7,14.643662,-1.249703,1.846909,0.774363,-0.206645,2.0,0.0,1.0,1.42977,2,19800.0,14.69689063572472,10.241970386845438,19800,0.06379999965429306,0.15369999408721924,-0.9424999952316284
323,73018557,19770,19753,1,9,9.0,14.528001,-1.216,-1.216,-1.7,14.643662,-1.249703,1.846909,0.774363,-0.206645,2.0,0.0,1.0,1.42977,2,19800.0,14.69689063572472,10.241970386845438,19899,0.0406000018119812,0.14499999582767487,-0.9483000040054321
324,73018557,19998,19996,1,9,9.0,15.168001,-1.024,-1.024,-1.7,15.062236,-1.071255,1.875724,0.841098,0.331114,2.0,0.0,1.0,1.46595,2,20000.0,15.100282798501523,10.274726968859783,20000,0.08699999749660492,0.121799997985363,-0.9541000127792358
325,73018557,19998,19996,1,9,9.0,15.168001,-1.024,-1.024,-1.7,15.062236,-1.071255,1.875724,0.841098,0.331114,2.0,0.0,1.0,1.46595,2,20000.0,15.100282798501523,10.274726968859783,20099,0.08699999749660492,0.12759999930858612,-0.9976000189781189
326,73018557,20150,20145,1,9,9.0,15.456,-0.96,-0.96,-1.7,15.356035,-0.927276,1.994994,1.084626,0.436603,2.0,0.0,1.0,1.489361,2,20200.0,15.38400636054864,10.310485503514595,20200,0.0812000036239624,0.11890000104904175,-0.974399983882904
327,73018557,20150,20145,1,9,9.0,15.456,-0.96,-0.96,-1.7,15.356035,-0.927276,1.994994,1.084626,0.436603,2.0,0.0,1.0,1.489361,2,20200.0,15.38400636054864,10.310485503514595,20299,0.09279999881982803,0.121799997985363,-0.9453999996185303
328,73018557,20378,20365,1,10,10.0,14.912001,2.88,2.88,-0.5,14.747904,2.93624,-12.021223,1.676525,-0.509596,-2.0,,0.0,1.420739,2,20400.0,15.037359400201089,10.380445669472014,20400,0.08699999749660492,0.11599999666213989,-0.9483000040054321
329,73018557,20378,20365,1,10,10.0,14.912001,2.88,2.88,-0.5,14.747904,2.93624,-12.021223,1.676525,-0.509596,-2.0,,0.0,1.420739,2,20400.0,15.037359400201089,10.380445669472014,20499,0.06669999659061432,0.05510000139474869,-0.9685999751091003
330,73018557,20606,20610,1,10,10.0,11.872001,3.328,3.328,-0.2,11.980721,3.247105,-12.247125,1.023912,-0.468304,-2.0,,0.0,1.144889,2,20600.0,12.412951565234838,10.46452625538371,20600,0.0608999989926815,0.06379999965429306,-0.9656999707221985
331,73018557,20606,20610,1,10,10.0,11.872001,3.328,3.328,-0.2,11.980721,3.247105,-12.247125,1.023912,-0.468304,-2.0,,0.0,1.144889,2,20600.0,12.412951565234838,10.46452625538371,20699,0.09279999881982803,0.03480000048875809,-0.9599000215530396
332,73018557,20834,20840,2,10,10.0,9.056001,3.424,3.424,-0.4,9.164914,3.397768,-12.445906,0.321232,-0.399072,-2.0,,0.0,0.864656,2,20800.0,9.77448085625114,10.599491589718918,20800,0.07249999791383743,0.0406000018119812,-1.0033999681472778
333,73018557,20834,20840,2,10,10.0,9.056001,3.424,3.424,-0.4,9.164914,3.397768,-12.445906,0.321232,-0.399072,-2.0,,0.0,0.864656,2,20800.0,9.77448085625114,10.599491589718918,20899,0.049300000071525574,0.017400000244379044,-0.9918000102043152
334,73018557,20986,20989,2,10,10.0,7.168,3.424,3.424,-0.4,7.264277,3.420334,-12.557019,0.001865,-0.333077,-2.0,,0.0,0.675947,2,21000.0,8.029221942647059,10.746814469181755,21000,0.08410000056028366,0.026100000366568565,-1.000499963760376
335,73018557,20986,20989,2,10,10.0,7.168,3.424,3.424,-0.4,7.264277,3.420334,-12.557019,0.001865,-0.333077,-2.0,,0.0,0.675947,2,21000.0,8.029221942647059,10.746814469181755,21099,0.08990000188350677,0.002899999963119626,-0.9860000014305115
336,73018557,21214,21217,2,10,10.0,4.288,3.328,3.328,-0.5,4.384972,3.393103,-12.693807,-0.187966,-0.277979,-2.0,,0.0,0.39782,2,21200.0,5.544468180934309,11.022502639384648,21200,0.0812000036239624,0.002899999963119626,-0.9656999707221985
337,73018557,21214,21217,2,10,10.0,4.288,3.328,3.328,-0.5,4.384972,3.393103,-12.693807,-0.187966,-0.277979,-2.0,,0.0,0.39782,2,21200.0,5.544468180934309,11.022502639384648,21299,0.07540000230073929,0.002899999963119626,-0.9599000215530396
338,73018557,21366,21348,1,9,9.0,18.400002,1.056,1.056,0.0,18.328129,1.120944,2.703021,0.832341,0.226782,2.0,0.0,1.0,1.632996,2,21400.0,18.3623753390398,11.223621490805858,21400,0.05220000073313713,-0.011599999852478504,-1.0033999681472778
339,73018557,21366,21348,1,9,9.0,18.400002,1.056,1.056,0.0,18.328129,1.120944,2.703021,0.832341,0.226782,2.0,0.0,1.0,1.632996,2,21400.0,18.3623753390398,11.223621490805858,21499,0.057999998331069946,0.028999999165534973,-1.0062999725341797
340,73018557,21594,21592,1,9,9.0,18.912001,1.248,1.248,0.3,18.956412,1.268644,2.809639,0.476846,0.241418,2.0,0.0,1.0,1.645747,2,21600.0,18.998816108181057,11.518424156325365,21600,0.09570000320672989,-0.014499999582767487,-0.994700014591217
341,73018557,21594,21592,1,9,9.0,18.912001,1.248,1.248,0.3,18.956412,1.268644,2.809639,0.476846,0.241418,2.0,0.0,1.0,1.645747,2,21600.0,18.998816108181057,11.518424156325365,21699,0.11020000278949738,0.002899999963119626,-0.9366999864578247
342,73018557,21822,21818,1,9,9.0,19.456001,1.376,1.376,0.5,19.609289,1.342867,2.916335,0.185832,0.221939,2.0,0.0,1.0,1.661469,2,21800.0,19.65521576745496,11.802380303213601,21800,0.0812000036239624,-0.005799999926239252,-0.9453999996185303
343,73018557,21822,21818,1,9,9.0,19.456001,1.376,1.376,0.5,19.609289,1.342867,2.916335,0.185832,0.221939,2.0,0.0,1.0,1.661469,2,21800.0,19.65521576745496,11.802380303213601,21899,0.028999999165534973,-0.0608999989926815,-0.9918000102043152
344,73018557,21974,21966,1,9,9.0,19.904001,1.376,1.376,0.5,20.057274,1.361002,2.975304,0.066462,0.175087,2.0,0.0,1.0,1.670382,2,22000.0,20.103396895924828,12.00759706462354,22000,0.0406000018119812,-0.04349999874830246,-1.0353000164031982
345,73018557,21974,21966,1,9,9.0,19.904001,1.376,1.376,0.5,20.057274,1.361002,2.975304,0.066462,0.175087,2.0,0.0,1.0,1.670382,2,22000.0,20.103396895924828,12.00759706462354,22099,0.07249999791383743,-0.07249999791383743,-1.070099949836731
346,73018557,22202,22192,1,9,9.0,20.544001,1.312,1.312,0.5,20.743648,1.370414,3.033663,0.050291,0.026544,2.0,0.0,1.0,1.683644,2,22200.0,20.78886641640905,12.320685370541517,22200,0.1014999970793724,-0.057999998331069946,-1.020799994468689
347,73018557,22202,22192,1,9,9.0,20.544001,1.312,1.312,0.5,20.743648,1.370414,3.033663,0.050291,0.026544,2.0,0.0,1.0,1.683644,2,22200.0,20.78886641640905,12.320685370541517,22299,0.09860000014305115,-0.05510000139474869,-0.9860000014305115
348,73018557,22354,22343,1,9,9.0,21.056002,1.344,1.344,0.7,21.204395,1.382995,3.022769,0.117407,-0.093146,2.0,0.0,1.0,1.693507,2,22400.0,21.249448051327125,12.520996370254153,22400,0.08410000056028366,-0.0608999989926815,-0.930899977684021
349,73018557,22354,22343,1,9,9.0,21.056002,1.344,1.344,0.7,21.204395,1.382995,3.022769,0.117407,-0.093146,2.0,0.0,1.0,1.693507,2,22400.0,21.249448051327125,12.520996370254153,22499,0.09570000320672989,-0.07540000230073929,-0.9483000040054321
350,73018557,22582,22567,1,9,9.0,21.664001,1.408,1.408,0.9,21.886671,1.417636,2.957711,0.168219,-0.149858,2.0,0.0,1.0,1.711439,2,22600.0,21.93253426512169,12.788461055287392,22600,0.05220000073313713,-0.1014999970793724,-0.9714999794960022
351,73018557,22582,22567,1,9,9.0,21.664001,1.408,1.408,0.9,21.886671,1.417636,2.957711,0.168219,-0.149858,2.0,0.0,1.0,1.711439,2,22600.0,21.93253426512169,12.788461055287392,22699,0.06960000097751617,-0.08699999749660492,-0.9628000259399414
352,73018557,22810,22791,1,9,9.0,22.400002,1.44,1.44,1.0,22.556842,1.450899,2.942027,0.110909,0.108941,2.0,0.0,1.0,1.734784,2,22800.0,22.60345612779526,13.002680448978085,22800,0.07829999923706055,-0.09570000320672989,-1.0033999681472778
353,73018557,22810,22791,1,9,9.0,22.400002,1.44,1.44,1.0,22.556842,1.450899,2.942027,0.110909,0.108941,2.0,0.0,1.0,1.734784,2,22800.0,22.60345612779526,13.002680448978085,22899,0.05510000139474869,-0.11599999666213989,-1.0062999725341797
354,73018557,22962,22945,1,9,9.0,23.072001,1.504,1.504,1.2,23.007134,1.464536,2.982406,0.071411,0.117413,2.0,0.0,1.0,1.752749,2,23000.0,23.05369993274945,13.12631414994389,23000,0.07249999791383743,-0.09570000320672989,-1.000499963760376
355,73018557,22962,22945,1,9,9.0,23.072001,1.504,1.504,1.2,23.007134,1.464536,2.982406,0.071411,0.117413,2.0,0.0,1.0,1.752749,2,23000.0,23.05369993274945,13.12631414994389,23099,0.06669999659061432,-0.10440000146627426,-1.000499963760376
356,73018557,23190,23166,1,9,9.0,23.968,1.536,1.536,1.5,23.691617,1.47965,3.016044,0.074341,0.048103,2.0,0.0,1.0,1.781658,2,23200.0,23.737777490683264,13.297511082373834,23200,0.0608999989926815,-0.12759999930858612,-1.0091999769210815
357,73018557,23190,23166,1,9,9.0,23.968,1.536,1.536,1.5,23.691617,1.47965,3.016044,0.074341,0.048103,2.0,0.0,1.0,1.781658,2,23200.0,23.737777490683264,13.297511082373834,23299,0.06960000097751617,-0.11309999972581863,-1.0062999725341797
358,73018557,23425,23426,1,9,9.0,24.608002,1.472,1.472,1.8,24.401538,1.508578,3.013655,0.19976,-0.080285,2.0,0.0,1.0,1.81103,2,23400.0,24.448125988458255,13.473845270371005,23400,0.1014999970793724,-0.11020000278949738,-0.951200008392334
359,73018557,23425,23426,1,9,9.0,24.608002,1.472,1.472,1.8,24.401538,1.508578,3.013655,0.19976,-0.080285,2.0,0.0,1.0,1.81103,2,23400.0,24.448125988458255,13.473845270371005,23499,0.07540000230073929,-0.11020000278949738,-0.9889000058174133
360,73018557,23577,23565,1,9,9.0,24.992001,1.504,1.504,2.0,24.857718,1.548861,2.98844,0.329308,-0.079336,2.0,0.0,1.0,1.828113,2,23600.0,24.90592529027671,13.59747346033861,23600,0.049300000071525574,-0.06960000097751617,-0.951200008392334
361,73018557,23577,23565,1,9,9.0,24.992001,1.504,1.504,2.0,24.857718,1.548861,2.98844,0.329308,-0.079336,2.0,0.0,1.0,1.828113,2,23600.0,24.90592529027671,13.59747346033861,23699,0.05220000073313713,-0.11599999666213989,-1.0033999681472778
362,73018557,23805,23793,1,9,9.0,25.6,1.632,1.632,2.3,25.534671,1.638918,2.94611,0.429575,-0.114724,2.0,0.0,1.0,1.850341,2,23800.0,25.587213120794633,13.79998119265584,23800,0.05220000073313713,-0.11599999666213989,-1.0091999769210815
363,73018557,23805,23793,1,9,9.0,25.6,1.632,1.632,2.3,25.534671,1.638918,2.94611,0.429575,-0.114724,2.0,0.0,1.0,1.850341,2,23800.0,25.587213120794633,13.79998119265584,23899,0.05510000139474869,-0.13339999318122864,-1.0062999725341797
364,73018557,23957,23950,1,9,9.0,25.984001,1.728,1.728,2.5,25.980137,1.701714,2.91829,0.379625,-0.055823,2.0,0.0,1.0,1.863942,2,24000.0,26.03580897680279,13.938275439901027,24000,0.04349999874830246,-0.13339999318122864,-1.0324000120162964
365,73018557,23957,23950,1,9,9.0,25.984001,1.728,1.728,2.5,25.980137,1.701714,2.91829,0.379625,-0.055823,2.0,0.0,1.0,1.863942,2,24000.0,26.03580897680279,13.938275439901027,24099,0.049300000071525574,-0.13339999318122864,-1.0120999813079834
366,73018557,24185,24191,1,9,9.0,26.624001,1.824,1.824,2.8,26.646198,1.764395,2.943554,0.150222,0.175668,2.0,0.0,1.0,1.882432,2,24200.0,26.704549379669917,14.155198169176893,24200,0.0812000036239624,-0.15369999408721924,-0.974399983882904
367,73018557,24185,24191,1,9,9.0,26.624001,1.824,1.824,2.8,26.646198,1.764395,2.943554,0.150222,0.175668,2.0,0.0,1.0,1.882432,2,24200.0,26.704549379669917,14.155198169176893,24299,0.057999998331069946,-0.15080000460147858,-0.9599000215530396
368,73018557,24413,24403,1,9,9.0,27.296001,1.792,1.792,3.0,27.32847,1.772708,3.047534,-0.046235,0.255145,2.0,0.0,1.0,1.899087,2,24400.0,27.385904516633442,14.390320190702164,24400,0.03189999982714653,-0.1768999993801117,-0.9830999970436096
369,73018557,24413,24403,1,9,9.0,27.296001,1.792,1.792,3.0,27.32847,1.772708,3.047534,-0.046235,0.255145,2.0,0.0,1.0,1.899087,2,24400.0,27.385904516633442,14.390320190702164,24499,0.026100000366568565,-0.14790000021457672,-1.017899990081787
370,73018557,24565,24545,1,9,9.0,27.744001,1.728,1.728,3.1,27.797316,1.765556,3.118577,-0.02503,0.20641,2.0,0.0,1.0,1.909029,2,24600.0,27.853329510006375,14.560971048632576,24600,0.05510000139474869,-0.14790000021457672,-1.0295000076293945
371,73018557,24565,24545,1,9,9.0,27.744001,1.728,1.728,3.1,27.797316,1.765556,3.118577,-0.02503,0.20641,2.0,0.0,1.0,1.909029,2,24600.0,27.853329510006375,14.560971048632576,24699,0.057999998331069946,-0.1421000063419342,-1.0033999681472778
372,73018557,24793,24789,1,9,9.0,28.480001,1.664,1.664,3.3,28.514869,1.781055,3.149834,0.176255,-0.108924,2.0,0.0,1.0,1.918311,2,24800.0,28.570437711035968,14.864570447649,24800,0.0608999989926815,-0.11890000104904175,-1.0062999725341797
373,73018557,24793,24789,1,9,9.0,28.480001,1.664,1.664,3.3,28.514869,1.781055,3.149834,0.176255,-0.108924,2.0,0.0,1.0,1.918311,2,24800.0,28.570437711035968,14.864570447649,24899,0.06379999965429306,-0.13050000369548798,-0.9918000102043152
374,73018557,25021,25020,1,9,9.0,29.024002,1.952,1.952,3.8,29.224142,1.836436,3.074802,0.260061,-0.0493,2.0,0.0,1.0,1.915932,2,25000.0,29.281785683565477,15.253225062267346,25000,0.06960000097751617,-0.1362999975681305,-0.974399983882904
375,73018557,25021,25020,1,9,9.0,29.024002,1.952,1.952,3.8,29.224142,1.836436,3.074802,0.260061,-0.0493,2.0,0.0,1.0,1.915932,2,25000.0,29.281785683565477,15.253225062267346,25099,0.057999998331069946,-0.14790000021457672,-0.9860000014305115
376,73018557,25249,25243,1,9,9.0,29.824001,1.888,1.888,3.9,29.931607,1.888456,3.155169,0.2169,0.268064,2.0,0.0,1.0,1.911325,2,25200.0,29.991121413951582,15.66013472329405,25200,0.0406000018119812,-0.1421000063419342,-1.0033999681472778
377,73018557,25249,25243,1,9,9.0,29.824001,1.888,1.888,3.9,29.931607,1.888456,3.155169,0.2169,0.268064,2.0,0.0,1.0,1.911325,2,25200.0,29.991121413951582,15.66013472329405,25299,0.04639999940991402,-0.13050000369548798,-1.0498000383377075
378,73018557,25401,25402,1,9,9.0,30.272001,1.984,1.984,4.1,30.417332,1.926106,3.235149,0.297102,0.261831,2.0,0.0,1.0,1.912339,2,25400.0,30.478254056317923,15.90582632054254,25400,0.06960000097751617,-0.13920000195503235,-1.0295000076293945
379,73018557,25401,25402,1,9,9.0,30.272001,1.984,1.984,4.1,30.417332,1.926106,3.235149,0.297102,0.261831,2.0,0.0,1.0,1.912339,2,25400.0,30.478254056317923,15.90582632054254,25499,0.08699999749660492,-0.14499999582767487,-0.994700014591217
380,73018557,25629,25616,2,12,12.0,28.896002,-1.888,-1.888,1.6,28.845972,-2.005143,-16.422101,-2.71443,-0.270684,-2.0,,0.0,1.782553,2,25600.0,28.915578830022287,16.182392332794592,25600,0.0608999989926815,-0.13339999318122864,-0.9570000171661377
381,73018557,25629,25616,2,12,12.0,28.896002,-1.888,-1.888,1.6,28.845972,-2.005143,-16.422101,-2.71443,-0.270684,-2.0,,0.0,1.782553,2,25600.0,28.915578830022287,16.182392332794592,25699,0.049300000071525574,-0.1624000072479248,-0.9541000127792358
382,73018557,25781,25766,2,12,12.0,26.240002,-2.24,-2.24,1.7,26.343624,-2.397738,-16.498757,-2.448145,-0.23082,-2.0,,0.0,1.616083,2,25800.0,26.452517327657493,16.300910287404793,25800,0.04639999940991402,-0.14499999582767487,-1.0091999769210815
383,73018557,25781,25766,2,12,12.0,26.240002,-2.24,-2.24,1.7,26.343624,-2.397738,-16.498757,-2.448145,-0.23082,-2.0,,0.0,1.616083,2,25800.0,26.452517327657493,16.300910287404793,25899,0.05220000073313713,-0.1565999984741211,-1.0149999856948853
384,73018557,26009,25990,1,12,12.0,22.752001,-2.88,-2.88,1.7,22.570735,-2.894332,-16.588221,-1.823295,-0.153655,-2.0,,0.0,1.372551,2,26000.0,22.755553963075673,16.44436891598199,26000,0.06960000097751617,-0.1624000072479248,-1.0091999769210815
385,73018557,26009,25990,1,12,12.0,22.752001,-2.88,-2.88,1.7,22.570735,-2.894332,-16.588221,-1.823295,-0.153655,-2.0,,0.0,1.372551,2,26000.0,22.755553963075673,16.44436891598199,26099,0.06960000097751617,-0.17110000550746918,-0.974399983882904
386,73018557,26237,26202,1,12,12.0,18.848001,-3.36,-3.36,1.7,18.781837,-3.190603,-16.638626,-0.727767,-0.067353,-2.0,,0.0,1.133939,2,26200.0,19.050914639412408,16.563357464554972,26200,0.04639999940991402,-0.15950000286102295,-0.9976000189781189
387,73018557,26237,26202,1,12,12.0,18.848001,-3.36,-3.36,1.7,18.781837,-3.190603,-16.638626,-0.727767,-0.067353,-2.0,,0.0,1.133939,2,26200.0,19.050914639412408,16.563357464554972,26299,0.03480000048875809,-0.1362999975681305,-0.9772999882698059
388,73018557,26389,26385,1,12,12.0,16.256001,-3.424,-3.424,1.9,16.251629,-3.245963,-16.646212,-0.03243,0.021976,-2.0,,0.0,0.976769,2,26400.0,16.572619616433908,16.638149859383336,26400,0.06669999659061432,-0.12470000237226486,-0.9889000058174133
389,73018557,26389,26385,1,12,12.0,16.256001,-3.424,-3.424,1.9,16.251629,-3.245963,-16.646212,-0.03243,0.021976,-2.0,,0.0,0.976769,2,26400.0,16.572619616433908,16.638149859383336,26499,0.049300000071525574,-0.1421000063419342,-1.0091999769210815
390,73018557,26617,26625,1,12,12.0,12.416,-3.04,-3.04,2.6,12.458662,-3.183724,-16.618935,0.452587,0.075834,-2.0,,0.0,0.743482,2,26600.0,12.859018521583208,16.757180402484526,26600,0.06669999659061432,-0.14790000021457672,-1.0091999769210815
391,73018557,26617,26625,1,12,12.0,12.416,-3.04,-3.04,2.6,12.458662,-3.183724,-16.618935,0.452587,0.075834,-2.0,,0.0,0.743482,2,26600.0,12.859018521583208,16.757180402484526,26699,0.08699999749660492,-0.17110000550746918,-0.9830999970436096
392,73018557,26769,26758,1,9,9.0,35.008003,3.168,3.168,5.5,34.911241,3.140875,3.443518,0.365538,0.400585,2.0,0.0,1.0,2.072647,2,26800.0,35.052244491982336,16.843794915390802,26800,0.0608999989926815,-0.1768999993801117,-0.9656999707221985
393,73018557,26769,26758,1,9,9.0,35.008003,3.168,3.168,5.5,34.911241,3.140875,3.443518,0.365538,0.400585,2.0,0.0,1.0,2.072647,2,26800.0,35.052244491982336,16.843794915390802,26899,0.028999999165534973,-0.1768999993801117,-0.9830999970436096
394,73018557,26997,26999,1,9,9.0,35.968002,3.2,3.2,5.6,35.716247,3.192135,3.60552,0.131428,0.261356,2.0,0.0,1.0,2.104344,2,27000.0,35.858611596424566,16.972627574198896,27000,0.06379999965429306,-0.17110000550746918,-1.0062999725341797
395,73018557,26997,26999,1,9,9.0,35.968002,3.2,3.2,5.6,35.716247,3.192135,3.60552,0.131428,0.261356,2.0,0.0,1.0,2.104344,2,27000.0,35.858611596424566,16.972627574198896,27099,0.0608999989926815,-0.1565999984741211,-1.0440000295639038
396,73018557,27225,27211,1,9,9.0,36.928001,3.136,3.136,5.5,36.549059,3.221116,3.685158,0.169013,0.074271,2.0,0.0,1.0,2.137233,2,27200.0,36.690725014244904,17.10111110955146,27200,0.05510000139474869,-0.15080000460147858,-1.0382000207901
397,73018557,27225,27211,1,9,9.0,36.928001,3.136,3.136,5.5,36.549059,3.221116,3.685158,0.169013,0.074271,2.0,0.0,1.0,2.137233,2,27200.0,36.690725014244904,17.10111110955146,27299,0.06960000097751617,-0.14790000021457672,-1.0236999988555908
398,73018557,27377,27360,1,9,9.0,37.536003,3.2,3.2,5.6,37.110183,3.254897,3.694016,0.271407,0.007042,2.0,0.0,1.0,2.159171,2,27400.0,37.25265140596167,17.187236675557422,27400,0.08410000056028366,-0.15080000460147858,-0.9889000058174133
399,73018557,27377,27360,1,9,9.0,37.536003,3.2,3.2,5.6,37.110183,3.254897,3.694016,0.271407,0.007042,2.0,0.0,1.0,2.159171,2,27400.0,37.25265140596167,17.187236675557422,27499,0.06960000097751617,-0.1565999984741211,-0.951200008392334
400,73018557,27605,27597,1,9,9.0,38.496002,3.36,3.36,5.7,37.954256,3.32093,3.720244,0.257458,0.140189,2.0,0.0,1.0,2.191591,2,27600.0,38.0992667196947,17.31812915822341,27600,0.05220000073313713,-0.1421000063419342,-0.9656999707221985
401,73018557,27605,27597,1,9,9.0,38.496002,3.36,3.36,5.7,37.954256,3.32093,3.720244,0.257458,0.140189,2.0,0.0,1.0,2.191591,2,27600.0,38.0992667196947,17.31812915822341,27699,0.06379999965429306,-0.12470000237226486,-0.994700014591217
402,73018557,27757,27754,1,9,9.0,39.136002,3.424,3.424,5.7,38.523586,3.347576,3.772044,0.070274,0.180541,2.0,0.0,1.0,2.213104,2,27800.0,38.66875926862888,17.407038259385914,27800,0.07249999791383743,-0.12759999930858612,-1.000499963760376
403,73018557,27757,27754,1,9,9.0,39.136002,3.424,3.424,5.7,38.523586,3.347576,3.772044,0.070274,0.180541,2.0,0.0,1.0,2.213104,2,27800.0,38.66875926862888,17.407038259385914,27899,0.04349999874830246,-0.09570000320672989,-0.9976000189781189
404,73018557,27986,27971,1,9,9.0,40.160004,3.328,3.328,5.5,39.39295,3.311867,3.849801,-0.428862,0.137982,2.0,0.0,1.0,2.245564,2,28000.0,39.53192346355271,17.54256391712728,28000,0.0608999989926815,-0.11599999666213989,-1.0236999988555908
405,73018557,27986,27971,1,9,9.0,40.160004,3.328,3.328,5.5,39.39295,3.311867,3.849801,-0.428862,0.137982,2.0,0.0,1.0,2.245564,2,28000.0,39.53192346355271,17.54256391712728,28099,0.07540000230073929,-0.10440000146627426,-1.0091999769210815
406,73018557,28214,28213,1,9,9.0,41.216003,3.2,3.2,5.3,40.278232,3.123142,3.919836,-1.264786,0.181687,2.0,0.0,1.0,2.278243,2,28200.0,40.399133517910855,17.679515310702154,28200,0.0812000036239624,-0.13050000369548798,-1.0033999681472778
407,73018557,28214,28213,1,9,9.0,41.216003,3.2,3.2,5.3,40.278232,3.123142,3.919836,-1.264786,0.181687,2.0,0.0,1.0,2.278243,2,28200.0,40.399133517910855,17.679515310702154,28299,0.07249999791383743,-0.08699999749660492,-0.9483000040054321
408,73018557,28366,28362,1,9,9.0,41.920002,3.04,3.04,5.0,40.878251,2.889959,3.97422,-1.775474,0.175028,2.0,0.0,1.0,2.300283,2,28400.0,40.980279011259576,17.77096600722607,28400,0.09570000320672989,-0.06379999965429306,-0.9337999820709229
409,73018557,28366,28362,1,9,9.0,41.920002,3.04,3.04,5.0,40.878251,2.889959,3.97422,-1.775474,0.175028,2.0,0.0,1.0,2.300283,2,28400.0,40.980279011259576,17.77096600722607,28499,0.06379999965429306,-0.06669999659061432,-0.951200008392334
410,73018557,28594,28598,1,9,9.0,43.008003,2.368,2.368,4.4,41.791246,2.441354,4.018724,-2.044717,-0.009689,2.0,0.0,1.0,2.333745,2,28600.0,41.86249456955273,17.90737462747644,28600,0.05510000139474869,-0.0608999989926815,-0.9801999926567078
411,73018557,28594,28598,1,9,9.0,43.008003,2.368,2.368,4.4,41.791246,2.441354,4.018724,-2.044717,-0.009689,2.0,0.0,1.0,2.333745,2,28600.0,41.86249456955273,17.90737462747644,28699,0.0608999989926815,-0.0608999989926815,-1.0295000076293945
412,73018557,28822,28820,1,9,9.0,44.096001,1.888,1.888,3.8,42.703477,1.99662,3.968123,-1.794359,-0.196623,2.0,0.0,1.0,2.367772,2,28800.0,42.75012794500069,18.03529942916801,28800,0.07249999791383743,-0.026100000366568565,-1.0440000295639038
413,73018557,28822,28820,1,9,9.0,44.096001,1.888,1.888,3.8,42.703477,1.99662,3.968123,-1.794359,-0.196623,2.0,0.0,1.0,2.367772,2,28800.0,42.75012794500069,18.03529942916801,28899,0.08410000056028366,-0.028999999165534973,-1.020799994468689
414,73018557,28974,28954,1,9,9.0,44.768002,1.888,1.888,3.7,43.302052,1.746581,3.909173,-1.49193,-0.166353,2.0,0.0,1.0,2.390652,2,29000.0,43.33726171091415,18.113072082427724,29000,0.09860000014305115,-0.017400000244379044,-0.9656999707221985
415,73018557,28974,28954,1,9,9.0,44.768002,1.888,1.888,3.7,43.302052,1.746581,3.909173,-1.49193,-0.166353,2.0,0.0,1.0,2.390652,2,29000.0,43.33726171091415,18.113072082427724,29099,0.07540000230073929,0.0,-0.951200008392334
416,73018557,29202,29188,1,9,9.0,45.824001,1.376,1.376,3.1,44.185338,1.470893,3.834663,-0.836092,-0.214008,2.0,0.0,1.0,2.423596,2,29200.0,44.20981362086582,18.231313304692698,29200,0.07829999923706055,0.0406000018119812,-0.9570000171661377
417,73018557,29202,29188,1,9,9.0,45.824001,1.376,1.376,3.1,44.185338,1.470893,3.834663,-0.836092,-0.214008,2.0,0.0,1.0,2.423596,2,29200.0,44.20981362086582,18.231313304692698,29299,0.08410000056028366,0.03480000048875809,-0.9685999751091003
418,73018557,29354,29364,1,9,9.0,46.496002,1.184,1.184,2.8,44.762372,1.3975,3.750891,-0.103846,-0.347699,2.0,0.0,1.0,2.443498,2,29400.0,44.784181954305964,18.318972227519726,29400,0.07829999923706055,0.06669999659061432,-0.9714999794960022
419,73018557,29354,29364,1,9,9.0,46.496002,1.184,1.184,2.8,44.762372,1.3975,3.750891,-0.103846,-0.347699,2.0,0.0,1.0,2.443498,2,29400.0,44.784181954305964,18.318972227519726,29499,0.07829999923706055,0.06669999659061432,-0.9801999926567078
420,73018557,29582,29566,1,9,9.0,47.360001,1.504,1.504,2.5,45.593152,1.497819,3.508016,0.8893,-0.690739,2.0,-1.0,0.0,2.467565,2,29600.0,45.61774842155042,18.47698115348532,29600,0.0812000036239624,0.06379999965429306,-0.9889000058174133
421,73018557,29582,29566,1,9,9.0,47.360001,1.504,1.504,2.5,45.593152,1.497819,3.508016,0.8893,-0.690739,2.0,-1.0,0.0,2.467565,2,29600.0,45.61774842155042,18.47698115348532,29699,0.06669999659061432,0.028999999165534973,-0.9976000189781189
422,73018557,29810,29814,2,9,9.0,48.128002,1.984,1.984,2.3,46.357069,1.744093,3.196009,1.162149,-0.667283,2.0,-1.0,0.0,2.477076,2,29800.0,46.38986642213373,18.714431450629696,29800,0.07249999791383743,0.03189999982714653,-1.0120999813079834
423,73018557,29810,29814,2,9,9.0,48.128002,1.984,1.984,2.3,46.357069,1.744093,3.196009,1.162149,-0.667283,2.0,-1.0,0.0,2.477076,2,29800.0,46.38986642213373,18.714431450629696,29899,0.08699999749660492,0.008700000122189522,-1.0295000076293945
424,73018557,30038,30018,1,14,14.0,48.096001,-1.28,-1.28,0.8,48.557217,-1.687463,3.949507,-1.725791,-0.239821,99.0,0.0,1.0,2.545739,2,30000.0,48.586529554614806,19.073918025374947,30000,0.1014999970793724,0.04639999940991402,-0.9570000171661377
425,73018557,30038,30018,1,14,14.0,48.096001,-1.28,-1.28,0.8,48.557217,-1.687463,3.949507,-1.725791,-0.239821,99.0,0.0,1.0,2.545739,2,30000.0,48.586529554614806,19.073918025374947,30099,0.0812000036239624,0.07829999923706055,-0.951200008392334
426,73018557,30190,30177,1,14,14.0,48.704002,-1.824,-1.824,-0.8,49.152463,-1.984352,3.881102,-2.134926,-0.261984,99.0,0.0,1.0,2.541318,2,30200.0,49.19250219114975,19.341327216822137,30200,0.06379999965429306,0.0812000036239624,-0.9801999926567078
427,73018557,30190,30177,1,14,14.0,48.704002,-1.824,-1.824,-0.8,49.152463,-1.984352,3.881102,-2.134926,-0.261984,99.0,0.0,1.0,2.541318,2,30200.0,49.19250219114975,19.341327216822137,30299,0.06960000097751617,0.014499999582767487,-1.0324000120162964
428,73018557,30418,30414,1,14,14.0,49.632004,-2.784,-2.784,-2.0,50.02369,-2.4732,3.772336,-2.008047,-0.115707,99.0,0.0,1.0,2.536683,2,30400.0,50.08479089959446,19.720118753506057,30400,0.0812000036239624,0.017400000244379044,-1.0236999988555908
429,73018557,30418,30414,1,14,14.0,49.632004,-2.784,-2.784,-2.0,50.02369,-2.4732,3.772336,-2.008047,-0.115707,99.0,0.0,1.0,2.536683,2,30400.0,50.08479089959446,19.720118753506057,30499,0.11599999666213989,0.03189999982714653,-0.9772999882698059
430,73018557,30570,30559,1,14,14.0,50.176003,-2.88,-2.88,-1.7,50.595104,-2.754389,3.742716,-1.702619,-0.11687,99.0,0.0,1.0,2.539859,2,30600.0,50.6700227702153,19.920438103060054,30600,0.08410000056028366,0.07829999923706055,-0.9279999732971191
431,73018557,30570,30559,1,14,14.0,50.176003,-2.88,-2.88,-1.7,50.595104,-2.754389,3.742716,-1.702619,-0.11687,99.0,0.0,1.0,2.539859,2,30600.0,50.6700227702153,19.920438103060054,30699,0.05510000139474869,0.09570000320672989,-0.9714999794960022
432,73018557,30798,30801,1,14,14.0,51.040001,-3.008,-3.008,-1.5,51.445546,-3.11816,3.727849,-1.573993,0.018155,99.0,0.0,1.0,2.557749,2,30800.0,51.5399565873286,20.11360223383921,30800,0.06960000097751617,0.09279999881982803,-1.0382000207901
433,73018557,30798,30801,1,14,14.0,51.040001,-3.008,-3.008,-1.5,51.445546,-3.11816,3.727849,-1.573993,0.018155,99.0,0.0,1.0,2.557749,2,30800.0,51.5399565873286,20.11360223383921,30899,0.09279999881982803,0.07540000230073929,-1.0440000295639038
434,73018557,30950,30958,1,14,14.0,51.616001,-3.232,-3.232,-1.6,52.012238,-3.366326,3.722717,-1.705023,-0.087532,99.0,0.0,1.0,2.573264,2,31000.0,52.121061505949015,20.212554172444026,31000,0.09570000320672989,0.028999999165534973,-0.9860000014305115
435,73018557,30950,30958,1,14,14.0,51.616001,-3.232,-3.232,-1.6,52.012238,-3.366326,3.722717,-1.705023,-0.087532,99.0,0.0,1.0,2.573264,2,31000.0,52.121061505949015,20.212554172444026,31099,0.07540000230073929,0.02319999970495701,-0.9685999751091003
436,73018557,31178,31159,1,14,14.0,52.384003,-3.776,-3.776,-1.8,52.852252,-3.776193,3.643265,-1.845554,-0.121981,99.0,0.0,1.0,2.59857,2,31200.0,52.98698118448298,20.338975667386293,31200,0.06960000097751617,0.05510000139474869,-0.9772999882698059
437,73018557,31178,31159,1,14,14.0,52.384003,-3.776,-3.776,-1.8,52.852252,-3.776193,3.643265,-1.845554,-0.121981,99.0,0.0,1.0,2.59857,2,31200.0,52.98698118448298,20.338975667386293,31299,0.06669999659061432,0.0608999989926815,-0.994700014591217
438,73018557,31406,31399,1,14,14.0,53.216003,-4.224,-4.224,-1.9,53.67592,-4.183956,3.570551,-1.688545,-0.189527,99.0,0.0,1.0,2.623649,2,31400.0,53.83873954371829,20.458498831207987,31400,0.07829999923706055,0.08990000188350677,-1.0091999769210815
439,73018557,31406,31399,1,14,14.0,53.216003,-4.224,-4.224,-1.9,53.67592,-4.183956,3.570551,-1.688545,-0.189527,99.0,0.0,1.0,2.623649,2,31400.0,53.83873954371829,20.458498831207987,31499,0.08699999749660492,0.07249999791383743,-1.0149999856948853
440,73018557,31558,31562,1,14,14.0,53.760002,-4.384,-4.384,-1.9,54.215894,-4.425805,3.541882,-1.483939,-0.039105,99.0,0.0,1.0,2.638865,2,31600.0,54.39623987112768,20.545156345625866,31600,0.09860000014305115,0.1014999970793724,-0.994700014591217
441,73018557,31558,31562,1,14,14.0,53.760002,-4.384,-4.384,-1.9,54.215894,-4.425805,3.541882,-1.483939,-0.039105,99.0,0.0,1.0,2.638865,2,31600.0,54.39623987112768,20.545156345625866,31699,0.049300000071525574,0.09570000320672989,-0.994700014591217
442,73018557,31786,31766,1,14,14.0,54.560001,-4.736,-4.736,-2.0,55.018283,-4.715312,3.478273,-1.01321,-0.199279,99.0,0.0,1.0,2.65863,2,31800.0,55.219974932314415,20.69422334059271,31800,0.07249999791383743,0.09570000320672989,-1.0062999725341797
443,73018557,31786,31766,1,14,14.0,54.560001,-4.736,-4.736,-2.0,55.018283,-4.715312,3.478273,-1.01321,-0.199279,99.0,0.0,1.0,2.65863,2,31800.0,55.219974932314415,20.69422334059271,31899,0.08410000056028366,0.10729999840259552,-1.000499963760376
444,73018557,32014,31995,1,14,14.0,55.328003,-4.96,-4.96,-2.1,55.806398,-4.869267,3.450118,-0.317653,-0.009721,99.0,0.0,1.0,2.676648,2,32000.0,56.01842392331021,20.849360095163803,32000,0.08699999749660492,0.11309999972581863,-0.9918000102043152
445,73018557,32014,31995,1,14,14.0,55.328003,-4.96,-4.96,-2.1,55.806398,-4.869267,3.450118,-0.317653,-0.009721,99.0,0.0,1.0,2.676648,2,32000.0,56.01842392331021,20.849360095163803,32099,0.06669999659061432,0.14499999582767487,-1.0120999813079834
446,73018557,32166,32142,1,14,14.0,55.872002,-4.928,-4.928,-1.9,56.329469,-4.883268,3.421492,0.115051,-0.205642,99.0,0.0,1.0,2.68786,2,32200.0,56.5407409235304,20.95699515599771,32200,0.07829999923706055,0.13339999318122864,-1.0091999769210815
447,73018557,32166,32142,1,14,14.0,55.872002,-4.928,-4.928,-1.9,56.329469,-4.883268,3.421492,0.115051,-0.205642,99.0,0.0,1.0,2.68786,2,32200.0,56.5407409235304,20.95699515599771,32299,0.07540000230073929,0.14499999582767487,-1.0091999769210815
448,73018557,32394,32378,1,14,14.0,56.672001,-4.768,-4.768,-1.7,57.100031,-4.808961,3.357374,0.464833,-0.007341,99.0,0.0,1.0,2.702543,2,32400.0,57.30217837133665,21.12825993887979,32400,0.07829999923706055,0.15369999408721924,-1.000499963760376
449,73018557,32394,32378,1,14,14.0,56.672001,-4.768,-4.768,-1.7,57.100031,-4.808961,3.357374,0.464833,-0.007341,99.0,0.0,1.0,2.702543,2,32400.0,57.30217837133665,21.12825993887979,32499,0.06960000097751617,0.14499999582767487,-1.0149999856948853
450,73018557,32622,32626,1,14,14.0,57.472004,-4.64,-4.64,-1.8,57.865909,-4.702524,3.353967,0.420666,-0.091469,99.0,0.0,1.0,2.714732,2,32600.0,58.05667193671075,21.315514385950436,32600,0.08410000056028366,0.13050000369548798,-1.020799994468689
451,73018557,32622,32626,1,14,14.0,57.472004,-4.64,-4.64,-1.8,57.865909,-4.702524,3.353967,0.420666,-0.091469,99.0,0.0,1.0,2.714732,2,32600.0,58.05667193671075,21.315514385950436,32699,0.08990000188350677,0.1014999970793724,-1.020799994468689
452,73018557,32774,32759,1,14,14.0,57.984001,-4.64,-4.64,-1.9,58.371994,-4.647629,3.297333,0.298175,-0.203474,99.0,0.0,1.0,2.719719,2,32800.0,58.55672582084553,21.46250917833791,32800,0.07829999923706055,0.10440000146627426,-0.9889000058174133
453,73018557,32774,32759,1,14,14.0,57.984001,-4.64,-4.64,-1.9,58.371994,-4.647629,3.297333,0.298175,-0.203474,99.0,0.0,1.0,2.719719,2,32800.0,58.55672582084553,21.46250917833791,32899,0.07829999923706055,0.12759999930858612,-0.9801999926567078
454,73018557,33002,32975,1,14,14.0,58.784004,-4.576,-4.576,-2.0,59.11807,-4.602247,3.25627,0.09666,-0.094168,99.0,0.0,1.0,2.719718,2,33000.0,59.29693818380431,21.736838157485447,33000,0.06669999659061432,0.13050000369548798,-0.994700014591217
455,73018557,33002,32975,1,14,14.0,58.784004,-4.576,-4.576,-2.0,59.11807,-4.602247,3.25627,0.09666,-0.094168,99.0,0.0,1.0,2.719718,2,33000.0,59.29693818380431,21.736838157485447,33099,0.07540000230073929,0.13339999318122864,-0.9918000102043152
456,73018557,33230,33205,1,15,15.0,29.568001,3.712,3.712,0.0,29.873465,3.660945,-23.011175,1.72264,-0.183767,-2.0,,0.0,1.356254,2,33200.0,30.096950499996673,22.02645300953951,33200,0.06379999965429306,0.10729999840259552,-1.0062999725341797
457,73018557,33230,33205,1,15,15.0,29.568001,3.712,3.712,0.0,29.873465,3.660945,-23.011175,1.72264,-0.183767,-2.0,,0.0,1.356254,2,33200.0,30.096950499996673,22.02645300953951,33299,0.07540000230073929,0.11309999972581863,-1.0324000120162964
458,73018557,33382,33373,1,15,15.0,26.464001,3.904,3.904,-0.1,26.370843,3.900936,-23.075278,1.425222,-0.243673,-2.0,,0.0,1.187869,2,33400.0,26.65780677787925,22.200127286763102,33400,0.08410000056028366,0.121799997985363,-1.0324000120162964
459,73018557,33382,33373,1,15,15.0,26.464001,3.904,3.904,-0.1,26.370843,3.900936,-23.075278,1.425222,-0.243673,-2.0,,0.0,1.187869,2,33400.0,26.65780677787925,22.200127286763102,33499,0.07249999791383743,0.13339999318122864,-1.0149999856948853
460,73018557,33610,33618,1,15,15.0,21.216002,4.16,4.16,-0.2,21.094939,4.165401,-23.206542,0.878523,-0.316728,-2.0,,0.0,0.942172,2,33600.0,21.502256088711295,22.38968999291,33600,0.07540000230073929,0.11890000104904175,-0.9918000102043152
461,73018557,33610,33618,1,15,15.0,21.216002,4.16,4.16,-0.2,21.094939,4.165401,-23.206542,0.878523,-0.316728,-2.0,,0.0,0.942172,2,33600.0,21.502256088711295,22.38968999291,33699,0.06669999659061432,0.10729999840259552,-1.0091999769210815
462,73018557,33838,33843,1,15,15.0,15.776001,4.384,4.384,-0.2,15.787269,4.296614,-23.344982,0.277262,-0.277359,-2.0,,0.0,0.701955,2,33800.0,16.36150220314006,22.490428873645747,33800,0.08699999749660492,0.12470000237226486,-0.9772999882698059
463,73018557,33838,33843,1,15,15.0,15.776001,4.384,4.384,-0.2,15.787269,4.296614,-23.344982,0.277262,-0.277359,-2.0,,0.0,0.701955,2,33800.0,16.36150220314006,22.490428873645747,33899,0.07249999791383743,0.13050000369548798,-0.9860000014305115
464,73018557,33990,33966,1,15,15.0,12.224001,4.288,4.288,-0.5,12.232437,4.314063,-23.423738,-0.022315,-0.246726,-2.0,,0.0,0.542651,2,34000.0,12.970877168755319,22.541996605553106,34000,0.06669999659061432,0.13339999318122864,-1.0120999813079834
465,73018557,33990,33966,1,15,15.0,12.224001,4.288,4.288,-0.5,12.232437,4.314063,-23.423738,-0.022315,-0.246726,-2.0,,0.0,0.542651,2,34000.0,12.970877168755319,22.541996605553106,34099,0.06669999659061432,0.121799997985363,-1.0266000032424927
466,73018557,34218,34212,1,15,15.0,6.848001,4.224,4.224,-0.8,6.878557,4.283589,-23.536923,-0.196756,-0.253339,-2.0,,0.0,0.304278,2,34200.0,8.103312972060872,22.606159498879315,34200,0.06669999659061432,0.11890000104904175,-1.0382000207901
467,73018557,34218,34212,1,15,15.0,6.848001,4.224,4.224,-0.8,6.878557,4.283589,-23.536923,-0.196756,-0.253339,-2.0,,0.0,0.304278,2,34200.0,8.103312972060872,22.606159498879315,34299,0.07829999923706055,0.11020000278949738,-1.0382000207901
468,73018557,34370,34364,1,14,14.0,63.200005,-4.736,-4.736,-2.5,63.364571,-4.785183,2.978327,-0.297946,0.028138,99.0,0.0,1.0,2.798108,2,34400.0,63.5449984999412,22.64550582036147,34400,0.08410000056028366,0.11309999972581863,-1.0120999813079834
469,73018557,34370,34364,1,14,14.0,63.200005,-4.736,-4.736,-2.5,63.364571,-4.785183,2.978327,-0.297946,0.028138,99.0,0.0,1.0,2.798108,2,34400.0,63.5449984999412,22.64550582036147,34499,0.06960000097751617,0.11599999666213989,-0.9772999882698059
470,73018557,34605,34589,1,14,14.0,63.968002,-4.832,-4.832,-2.6,64.06535,-4.867423,2.97412,-0.367072,-0.1124,99.0,0.0,1.0,2.82095,2,34600.0,64.24998737185423,22.710558499796168,34600,0.0812000036239624,0.14499999582767487,-0.9714999794960022
471,73018557,34605,34589,1,14,14.0,63.968002,-4.832,-4.832,-2.6,64.06535,-4.867423,2.97412,-0.367072,-0.1124,99.0,0.0,1.0,2.82095,2,34600.0,64.24998737185423,22.710558499796168,34699,0.06379999965429306,0.10440000146627426,-0.9830999970436096
472,73018557,34757,34719,1,14,14.0,64.448006,-4.928,-4.928,-2.7,64.513258,-4.917424,2.911893,-0.267917,-0.221252,99.0,0.0,1.0,2.83479,2,34800.0,64.70039811755673,22.757685048980697,34800,0.06669999659061432,0.10729999840259552,-1.020799994468689
473,73018557,34757,34719,1,14,14.0,64.448006,-4.928,-4.928,-2.7,64.513258,-4.917424,2.911893,-0.267917,-0.221252,99.0,0.0,1.0,2.83479,2,34800.0,64.70039811755673,22.757685048980697,34899,0.0812000036239624,0.13339999318122864,-1.0266000032424927
474,73018557,34985,34964,1,16,16.0,51.008003,2.368,2.368,4.4,50.705738,1.784892,-24.088469,2.944804,-0.013068,-2.0,,0.0,2.221336,2,35000.0,50.73714325399399,22.826685382130393,35000,0.06379999965429306,0.13339999318122864,-1.0324000120162964
475,73018557,34985,34964,1,16,16.0,51.008003,2.368,2.368,4.4,50.705738,1.784892,-24.088469,2.944804,-0.013068,-2.0,,0.0,2.221336,2,35000.0,50.73714325399399,22.826685382130393,35099,0.06669999659061432,0.11599999666213989,-1.041100025177002
476,73018557,35213,35216,1,16,16.0,45.760002,1.696,1.696,-1.2,45.211228,2.49508,-24.115451,3.442752,-0.144565,-2.0,,0.0,1.974652,2,35200.0,45.28002386786456,22.895795309755844,35200,0.09570000320672989,0.1014999970793724,-1.0062999725341797
477,73018557,35213,35216,1,16,16.0,45.760002,1.696,1.696,-1.2,45.211228,2.49508,-24.115451,3.442752,-0.144565,-2.0,,0.0,1.974652,2,35200.0,45.28002386786456,22.895795309755844,35299,0.06379999965429306,0.10729999840259552,-0.9976000189781189
478,73018557,35441,35410,1,16,16.0,40.320004,3.072,3.072,0.9,39.702139,3.34461,-24.213625,3.846482,-0.245642,-2.0,,0.0,1.728591,2,35400.0,39.84276919627226,22.9679195367788,35400,0.0608999989926815,0.09570000320672989,-0.9889000058174133
479,73018557,35441,35410,1,16,16.0,40.320004,3.072,3.072,0.9,39.702139,3.34461,-24.213625,3.846482,-0.245642,-2.0,,0.0,1.728591,2,35400.0,39.84276919627226,22.9679195367788,35499,0.06960000097751617,0.12470000237226486,-1.0033999681472778
480,73018557,35593,35567,1,16,16.0,36.544003,4.16,4.16,0.9,36.015914,3.910213,-24.283151,3.510028,-0.203883,-2.0,,0.0,1.56461,2,35600.0,36.22755618256309,23.019099967404017,35600,0.09279999881982803,0.11309999972581863,-0.9889000058174133
481,73018557,35593,35567,1,16,16.0,36.544003,4.16,4.16,0.9,36.015914,3.910213,-24.283151,3.510028,-0.203883,-2.0,,0.0,1.56461,2,35600.0,36.22755618256309,23.019099967404017,35699,0.06960000097751617,0.10729999840259552,-0.9918000102043152
482,73018557,35821,35820,1,16,16.0,29.536001,4.48,4.48,0.6,30.46938,4.599039,-24.363841,2.481664,-0.1665,-2.0,,0.0,1.318224,2,35800.0,30.814514068989002,23.113962422168008,35800,0.05510000139474869,0.11309999972581863,-0.9918000102043152
483,73018557,35821,35820,1,16,16.0,29.536001,4.48,4.48,0.6,30.46938,4.599039,-24.363841,2.481664,-0.1665,-2.0,,0.0,1.318224,2,35800.0,30.814514068989002,23.113962422168008,35899,0.07829999923706055,0.11890000104904175,-1.0091999769210815
484,73018557,36049,36037,1,16,16.0,25.152,4.96,4.96,0.1,24.905255,5.019054,-24.440341,1.192309,-0.167549,-2.0,,0.0,1.071896,2,36000.0,25.405956578525853,23.234768111831745,36000,0.08410000056028366,0.1014999970793724,-1.0120999813079834
485,73018557,36049,36037,1,16,16.0,25.152,4.96,4.96,0.1,24.905255,5.019054,-24.440341,1.192309,-0.167549,-2.0,,0.0,1.071896,2,36000.0,25.405956578525853,23.234768111831745,36099,0.0812000036239624,0.11599999666213989,-0.974399983882904
486,73018557,36201,36192,1,16,16.0,21.312,5.12,5.12,0.1,21.186261,5.137217,-24.488272,0.365717,-0.13531,-2.0,,0.0,0.90873,2,36200.0,21.80019847765634,23.314142814697433,36200,0.057999998331069946,0.13050000369548798,-0.9830999970436096
487,73018557,36201,36192,1,16,16.0,21.312,5.12,5.12,0.1,21.186261,5.137217,-24.488272,0.365717,-0.13531,-2.0,,0.0,0.90873,2,36200.0,21.80019847765634,23.314142814697433,36299,0.06669999659061432,0.14499999582767487,-1.0149999856948853
488,73018557,36429,36419,1,16,16.0,15.552001,5.056,5.056,-0.5,15.598159,5.084136,-24.511847,-0.773312,0.046268,-2.0,,0.0,0.666376,2,36400.0,16.405822230408845,23.407444145647503,36400,0.0812000036239624,0.09860000014305115,-1.0440000295639038
489,73018557,36429,36419,1,16,16.0,15.552001,5.056,5.056,-0.5,15.598159,5.084136,-24.511847,-0.773312,0.046268,-2.0,,0.0,0.666376,2,36400.0,16.405822230408845,23.407444145647503,36499,0.06960000097751617,0.11599999666213989,-1.0324000120162964
490,73018557,36581,36567,1,16,16.0,11.84,4.928,4.928,-0.9,11.873977,4.930506,-24.481623,-1.197304,0.143226,-2.0,,0.0,0.506603,2,36600.0,12.856952174312736,23.43842614433787,36600,0.06379999965429306,0.11020000278949738,-1.0236999988555908
491,73018557,36581,36567,1,16,16.0,11.84,4.928,4.928,-0.9,11.873977,4.930506,-24.481623,-1.197304,0.143226,-2.0,,0.0,0.506603,2,36600.0,12.856952174312736,23.43842614433787,36699,0.0812000036239624,0.121799997985363,-0.994700014591217
492,73018557,36809,36816,1,16,16.0,6.272,4.512,4.512,-1.4,6.300119,4.631395,-24.406063,-1.357075,0.172015,-2.0,,0.0,0.26885,2,36800.0,7.8192914679135725,23.433583782778502,36800,0.08410000056028366,0.11890000104904175,-0.974399983882904
493,73018557,36809,36816,1,16,16.0,6.272,4.512,4.512,-1.4,6.300119,4.631395,-24.406063,-1.357075,0.172015,-2.0,,0.0,0.26885,2,36800.0,7.8192914679135725,23.433583782778502,36899,0.06960000097751617,0.11599999666213989,-0.9889000058174133
494,73018557,36961,36962,1,14,14.0,71.232002,-4.352,-4.352,-1.9,70.875967,-4.295778,2.973279,1.042649,-0.019527,99.0,0.0,1.0,3.026676,2,37000.0,71.00603077774713,23.417097502342504,37000,0.07249999791383743,0.12470000237226486,-0.9860000014305115
495,73018557,36961,36962,1,14,14.0,71.232002,-4.352,-4.352,-1.9,70.875967,-4.295778,2.973279,1.042649,-0.019527,99.0,0.0,1.0,3.026676,2,37000.0,71.00603077774713,23.417097502342504,37099,0.07829999923706055,0.11890000104904175,-0.974399983882904
496,73018557,37189,37171,1,14,14.0,71.968002,-3.968,-3.968,-1.6,71.553477,-4.107101,2.977897,0.547559,0.096072,99.0,0.0,1.0,3.059855,2,37200.0,71.67125190349147,23.384597309349626,37200,0.07829999923706055,0.121799997985363,-0.9801999926567078
497,73018557,37189,37171,1,14,14.0,71.968002,-3.968,-3.968,-1.6,71.553477,-4.107101,2.977897,0.547559,0.096072,99.0,0.0,1.0,3.059855,2,37200.0,71.67125190349147,23.384597309349626,37299,0.07540000230073929,0.11020000278949738,-0.974399983882904
498,73018557,37417,37412,1,14,14.0,72.672005,-4.032,-4.032,-1.9,72.240148,-4.051748,3.035501,-0.024899,-0.011901,99.0,0.0,1.0,3.093086,2,37400.0,72.35368439075793,23.355363543076397,37400,0.07540000230073929,0.11020000278949738,-0.9483000040054321
499,73018557,37417,37412,1,14,14.0,72.672005,-4.032,-4.032,-1.9,72.240148,-4.051748,3.035501,-0.024899,-0.011901,99.0,0.0,1.0,3.093086,2,37400.0,72.35368439075793,23.355363543076397,37499,0.07829999923706055,0.09860000014305115,-0.9453999996185303
500,73018557,37569,37565,1,14,14.0,73.120003,-4.096,-4.096,-2.1,72.701566,-4.073691,3.044266,-0.234542,0.102753,99.0,0.0,1.0,3.11427,2,37600.0,72.81560723646983,23.344657335426923,37600,0.05220000073313713,0.11890000104904175,-0.9801999926567078
501,73018557,37569,37565,1,14,14.0,73.120003,-4.096,-4.096,-2.1,72.701566,-4.073691,3.044266,-0.234542,0.102753,99.0,0.0,1.0,3.11427,2,37600.0,72.81560723646983,23.344657335426923,37699,0.0812000036239624,0.13920000195503235,-0.9830999970436096
502,73018557,37797,37778,1,14,14.0,73.856003,-4.096,-4.096,-2.2,73.399117,-4.131013,3.064964,-0.193088,-0.004604,99.0,0.0,1.0,3.135248,2,37800.0,73.51527490791189,23.41094452496262,37800,0.05510000139474869,0.11599999666213989,-1.0149999856948853
503,73018557,37797,37778,1,14,14.0,73.856003,-4.096,-4.096,-2.2,73.399117,-4.131013,3.064964,-0.193088,-0.004604,99.0,0.0,1.0,3.135248,2,37800.0,73.51527490791189,23.41094452496262,37899,0.06960000097751617,0.11020000278949738,-1.0440000295639038
504,73018557,38025,38020,1,14,14.0,74.560005,-4.192,-4.192,-2.3,74.097273,-4.123564,3.057828,0.339206,-0.015425,99.0,0.0,1.0,3.129805,2,38000.0,74.21192388086044,23.674725102682114,38000,0.06669999659061432,0.09860000014305115,-1.0353000164031982
505,73018557,38025,38020,1,14,14.0,74.560005,-4.192,-4.192,-2.3,74.097273,-4.123564,3.057828,0.339206,-0.015425,99.0,0.0,1.0,3.129805,2,38000.0,74.21192388086044,23.674725102682114,38099,0.08699999749660492,0.08990000188350677,-0.9889000058174133
506,73018557,38177,38178,1,14,14.0,75.040001,-4.16,-4.16,-2.2,74.56221,-4.031345,3.064608,0.884706,0.092915,99.0,0.0,1.0,3.118471,2,38200.0,74.67111156661004,23.909861595634524,38200,0.08699999749660492,0.09279999881982803,-0.974399983882904
507,73018557,38177,38178,1,14,14.0,75.040001,-4.16,-4.16,-2.2,74.56221,-4.031345,3.064608,0.884706,0.092915,99.0,0.0,1.0,3.118471,2,38200.0,74.67111156661004,23.909861595634524,38299,0.06960000097751617,0.11309999972581863,-0.9599000215530396
508,73018557,38405,38403,1,14,14.0,75.808006,-3.808,-3.808,-1.8,75.270788,-3.742399,3.158441,1.592056,0.204185,99.0,0.0,1.0,3.10181,2,38400.0,75.36376500955976,24.266730715292038,38400,0.07249999791383743,0.11599999666213989,-0.9599000215530396
509,73018557,38405,38403,1,14,14.0,75.808006,-3.808,-3.808,-1.8,75.270788,-3.742399,3.158441,1.592056,0.204185,99.0,0.0,1.0,3.10181,2,38400.0,75.36376500955976,24.266730715292038,38499,0.06960000097751617,0.11599999666213989,-0.9830999970436096
510,73018557,38557,38553,1,14,14.0,76.320007,-3.392,-3.392,-1.4,75.755577,-3.480952,3.217523,1.805985,0.126737,99.0,0.0,1.0,3.097377,2,38600.0,75.83550931739849,24.4579775080657,38600,0.06960000097751617,0.11890000104904175,-1.0149999856948853
511,73018557,38557,38553,1,14,14.0,76.320007,-3.392,-3.392,-1.4,75.755577,-3.480952,3.217523,1.805985,0.126737,99.0,0.0,1.0,3.097377,2,38600.0,75.83550931739849,24.4579775080657,38699,0.057999998331069946,0.11890000104904175,-1.0266000032424927
512,73018557,38785,38778,1,14,14.0,77.056007,-3.04,-3.04,-1.2,76.490334,-3.067424,3.228922,1.782298,0.088894,99.0,0.0,1.0,3.105296,2,38800.0,76.55181438364039,24.63221992364013,38800,0.09279999881982803,0.1014999970793724,-0.9860000014305115
513,73018557,38785,38778,1,14,14.0,77.056007,-3.04,-3.04,-1.2,76.490334,-3.067424,3.228922,1.782298,0.088894,99.0,0.0,1.0,3.105296,2,38800.0,76.55181438364039,24.63221992364013,38899,0.07540000230073929,0.09570000320672989,-0.951200008392334
514,73018557,39013,39022,1,14,14.0,77.824005,-2.848,-2.848,-1.2,77.22996,-2.671721,3.257795,1.698126,0.102873,99.0,0.0,1.0,3.117087,2,39000.0,77.27615941998828,24.7763248186528,39000,0.06669999659061432,0.10729999840259552,-0.9453999996185303
515,73018557,39089,39098,1,14,14.0,78.080002,-2.752,-2.752,-1.2,77.478364,-2.543887,3.281325,1.660111,0.209676,99.0,0.0,1.0,3.12164,2,39100.0,77.52011512623845,24.819762688843042,39101,0.07249999791383743,0.08990000188350677,-0.9483000040054321
516,73018557,39089,39098,1,14,14.0,78.080002,-2.752,-2.752,-1.2,77.478364,-2.543887,3.281325,1.660111,0.209676,99.0,0.0,1.0,3.12164,2,39100.0,77.52011512623845,24.819762688843042,39199,0.06669999659061432,0.08699999749660492,-0.9830999970436096
517,73018557,39317,39315,1,17,17.0,32.896,-6.464,-6.464,0.7,32.988808,-6.257122,-25.418864,0.431568,-0.216982,-2.0,,0.0,1.323117,2,39300.0,33.57697170656919,24.932646168101535,39300,0.057999998331069946,0.12759999930858612,-1.000499963760376
518,73018557,39317,39315,1,17,17.0,32.896,-6.464,-6.464,0.7,32.988808,-6.257122,-25.418864,0.431568,-0.216982,-2.0,,0.0,1.323117,2,39300.0,33.57697170656919,24.932646168101535,39399,0.06960000097751617,0.12759999930858612,-1.0062999725341797
519,73018557,39545,39501,1,17,17.0,27.392002,-6.048,-6.048,0.8,27.180533,-6.15134,-25.531335,0.432268,-0.275494,-2.0,,0.0,1.086617,2,39500.0,27.867909106348275,25.013903702960658,39500,0.07829999923706055,0.09860000014305115,-0.9889000058174133
520,73018557,39545,39501,1,17,17.0,27.392002,-6.048,-6.048,0.8,27.180533,-6.15134,-25.531335,0.432268,-0.275494,-2.0,,0.0,1.086617,2,39500.0,27.867909106348275,25.013903702960658,39599,0.06960000097751617,0.06960000097751617,-0.9714999794960022
521,73018557,39697,39681,1,17,17.0,23.232,-6.08,-6.08,0.0,23.292869,-6.098292,-25.61893,0.257932,-0.293001,-2.0,,0.0,0.929931,2,39700.0,24.077934121689616,25.047954095518914,39700,0.06960000097751617,0.049300000071525574,-0.9599000215530396
522,73018557,39697,39681,1,17,17.0,23.232,-6.08,-6.08,0.0,23.292869,-6.098292,-25.61893,0.257932,-0.293001,-2.0,,0.0,0.929931,2,39700.0,24.077934121689616,25.047954095518914,39799,0.08410000056028366,0.028999999165534973,-0.9424999952316284
523,73018557,39925,39918,1,17,17.0,17.408001,-6.048,-6.048,-0.2,17.436338,-6.067335,-25.749214,0.031502,-0.284877,-2.0,,0.0,0.695129,2,39900.0,18.461810226856656,25.083600310158257,39900,0.04349999874830246,0.04639999940991402,-0.9541000127792358
524,73018557,39925,39918,1,17,17.0,17.408001,-6.048,-6.048,-0.2,17.436338,-6.067335,-25.749214,0.031502,-0.284877,-2.0,,0.0,0.695129,2,39900.0,18.461810226856656,25.083600310158257,39999,0.07540000230073929,0.04349999874830246,-0.9599000215530396
525,73018557,40077,40064,1,17,17.0,13.504001,-6.08,-6.08,-0.2,13.515469,-6.069583,-25.837544,-0.051171,-0.296718,-2.0,,0.0,0.538427,2,40100.0,14.815793602903963,25.101766813328453,40100,0.06960000097751617,0.026100000366568565,-0.9628000259399414
526,73018557,40077,40064,1,17,17.0,13.504001,-6.08,-6.08,-0.2,13.515469,-6.069583,-25.837544,-0.051171,-0.296718,-2.0,,0.0,0.538427,2,40100.0,14.815793602903963,25.101766813328453,40199,0.049300000071525574,0.04349999874830246,-0.9860000014305115
527,73018557,40306,40289,1,17,17.0,7.584001,-6.112,-6.112,-0.2,7.608329,-6.086692,-25.976162,-0.084812,-0.308453,-2.0,,0.0,0.30281,2,40300.0,9.74343315649597,25.12575212179254,40300,0.06379999965429306,0.02319999970495701,-1.020799994468689
528,73018557,40306,40289,1,17,17.0,7.584001,-6.112,-6.112,-0.2,7.608329,-6.086692,-25.976162,-0.084812,-0.308453,-2.0,,0.0,0.30281,2,40300.0,9.74343315649597,25.12575212179254,40399,0.08410000056028366,0.026100000366568565,-1.0149999856948853
529,73018557,40534,40516,1,19,19.0,16.0,-6.592,-6.592,-0.7,16.487622,-6.551616,-22.710339,-1.195392,-0.557707,-2.0,,0.0,0.655518,2,40500.0,17.741627643098028,25.15205074460198,40500,0.06379999965429306,0.026100000366568565,-0.9830999970436096
530,73018557,40534,40516,1,19,19.0,16.0,-6.592,-6.592,-0.7,16.487622,-6.551616,-22.710339,-1.195392,-0.557707,-2.0,,0.0,0.655518,2,40500.0,17.741627643098028,25.15205074460198,40599,0.07249999791383743,0.0203000009059906,-0.9599000215530396
531,73018557,40686,40666,1,19,19.0,12.000001,-6.688,-6.688,-0.7,13.028926,-6.731836,-22.795118,-1.180321,-0.557707,-2.0,,0.0,0.517563,2,40700.0,14.665283108224404,25.173603986374605,40700,0.07829999923706055,0.03480000048875809,-0.9483000040054321
532,73018557,40686,40666,1,19,19.0,12.000001,-6.688,-6.688,-0.7,13.028926,-6.731836,-22.795118,-1.180321,-0.557707,-2.0,,0.0,0.517563,2,40700.0,14.665283108224404,25.173603986374605,40799,0.05510000139474869,0.049300000071525574,-0.9714999794960022
533,73018557,40914,40911,1,14,14.0,83.584007,-0.64,-0.64,1.2,82.94274,-0.957484,2.256252,1.639701,-0.460891,99.0,0.0,1.0,3.290615,2,40900.0,82.94826637319105,25.20584753913782,40900,0.07249999791383743,0.03480000048875809,-0.9801999926567078
534,73018557,40914,40911,1,14,14.0,83.584007,-0.64,-0.64,1.2,82.94274,-0.957484,2.256252,1.639701,-0.460891,99.0,0.0,1.0,3.290615,2,40900.0,82.94826637319105,25.20584753913782,40999,0.06960000097751617,0.026100000366568565,-0.9801999926567078
535,73018557,41066,41050,1,14,14.0,83.904007,-0.8,-0.8,0.8,83.275773,-0.733007,2.124179,1.337856,-0.453058,99.0,0.0,1.0,3.300933,2,41100.0,83.27899896138028,25.22795009774509,41100,0.057999998331069946,0.0406000018119812,-0.9976000189781189
536,73018557,41066,41050,1,14,14.0,83.904007,-0.8,-0.8,0.8,83.275773,-0.733007,2.124179,1.337856,-0.453058,99.0,0.0,1.0,3.300933,2,41100.0,83.27899896138028,25.22795009774509,41199,0.07249999791383743,0.03480000048875809,-0.9918000102043152
537,73018557,41294,41291,1,14,14.0,84.352005,-0.64,-0.64,0.9,83.737087,-0.427606,1.913404,1.459695,-0.572869,99.0,0.0,1.0,3.314336,2,41300.0,83.73817878445175,25.265117055120545,41300,0.06669999659061432,0.02319999970495701,-0.9656999707221985
538,73018557,41294,41291,1,14,14.0,84.352005,-0.64,-0.64,0.9,83.737087,-0.427606,1.913404,1.459695,-0.572869,99.0,0.0,1.0,3.314336,2,41300.0,83.73817878445175,25.265117055120545,41399,0.0608999989926815,0.017400000244379044,-0.9570000171661377
539,73018557,41522,41511,1,14,14.0,84.768005,-0.224,-0.224,1.3,84.142446,-0.046802,1.652157,1.875644,-0.458727,99.0,0.0,1.0,3.324364,2,41500.0,84.14245901618351,25.31084020883393,41500,0.06960000097751617,0.028999999165534973,-0.9656999707221985
540,73018557,41522,41511,1,14,14.0,84.768005,-0.224,-0.224,1.3,84.142446,-0.046802,1.652157,1.875644,-0.458727,99.0,0.0,1.0,3.324364,2,41500.0,84.14245901618351,25.31084020883393,41599,0.06379999965429306,0.04349999874830246,-0.9830999970436096
541,73018557,41674,41660,1,14,14.0,84.992004,0.352,0.352,1.8,84.383116,0.256555,1.507276,2.086839,-0.565986,99.0,0.0,1.0,3.328922,2,41700.0,84.38350600880175,25.348480979728574,41700,0.06669999659061432,0.04349999874830246,-0.9830999970436096
542,73018557,41674,41660,1,14,14.0,84.992004,0.352,0.352,1.8,84.383116,0.256555,1.507276,2.086839,-0.565986,99.0,0.0,1.0,3.328922,2,41700.0,84.38350600880175,25.348480979728574,41799,0.07249999791383743,0.0203000009059906,-0.9685999751091003
543,73018557,41902,41890,1,14,14.0,85.312004,0.704,0.704,1.9,84.696005,0.733186,1.246708,2.011182,-0.454129,99.0,0.0,1.0,3.330098,2,41900.0,84.69917841791985,25.43348724271778,41900,0.057999998331069946,0.0,-0.9685999751091003
544,73018557,41902,41890,1,14,14.0,85.312004,0.704,0.704,1.9,84.696005,0.733186,1.246708,2.011182,-0.454129,99.0,0.0,1.0,3.330098,2,41900.0,84.69917841791985,25.43348724271778,41999,0.06669999659061432,-0.011599999852478504,-0.9599000215530396
545,73018557,42130,42125,1,14,14.0,85.568001,1.152,1.152,2.2,84.957277,1.145644,1.036985,1.554225,-0.484736,99.0,0.0,1.0,3.325307,2,42100.0,84.96500112063477,25.54870181911024,42100,0.06960000097751617,0.0,-0.9656999707221985
546,73018557,42130,42125,1,14,14.0,85.568001,1.152,1.152,2.2,84.957277,1.145644,1.036985,1.554225,-0.484736,99.0,0.0,1.0,3.325307,2,42100.0,84.96500112063477,25.54870181911024,42199,0.057999998331069946,0.005799999926239252,-0.974399983882904
547,73018557,42282,42266,1,20,20.0,22.432001,-6.432,-6.432,-0.8,27.683345,-6.352652,-51.251965,0.608385,0.7021,-2.0,,0.0,1.079888,18,42300.0,28.40288326600187,25.635385336257094,42300,0.06669999659061432,0.0,-0.9801999926567078
548,73018557,42282,42266,1,20,20.0,22.432001,-6.432,-6.432,-0.8,27.683345,-6.352652,-51.251965,0.608385,0.7021,-2.0,,0.0,1.079888,18,42300.0,28.40288326600187,25.635385336257094,42399,0.0608999989926815,0.008700000122189522,-0.9860000014305115
549,73018557,42510,42507,1,20,20.0,17.504002,-6.176,-6.176,-0.2,16.015197,-6.235478,-51.091873,0.401974,0.7021,-2.0,,0.0,0.621468,18,42500.0,17.18626547093036,25.769946320647243,42500,0.05510000139474869,0.002899999963119626,-0.9685999751091003
550,73018557,42510,42507,1,20,20.0,17.504002,-6.176,-6.176,-0.2,16.015197,-6.235478,-51.091873,0.401974,0.7021,-2.0,,0.0,0.621468,18,42500.0,17.18626547093036,25.769946320647243,42599,0.07249999791383743,-0.005799999926239252,-0.9772999882698059
551,73018557,42738,42721,1,20,20.0,11.392,-6.24,-6.24,-0.1,4.383553,-6.158139,-50.931781,0.311422,0.7021,-2.0,,0.0,0.169246,18,42700.0,7.558982262654808,25.900482138425723,42700,0.05220000073313713,-0.008700000122189522,-1.000499963760376
552,73018557,42738,42721,1,20,20.0,11.392,-6.24,-6.24,-0.1,4.383553,-6.158139,-50.931781,0.311422,0.7021,-2.0,,0.0,0.169246,18,42700.0,7.558982262654808,25.900482138425723,42799,0.07540000230073929,-0.037700001150369644,-0.9889000058174133
553,73018557,42890,42865,1,14,14.0,86.112007,1.856,1.856,2.1,85.49978,1.516908,0.407174,-0.976885,-0.478249,99.0,0.0,1.0,3.289515,2,42900.0,85.51323517402943,25.99160666542028,42900,0.049300000071525574,-0.03480000048875809,-0.9772999882698059
554,73018557,42890,42865,1,14,14.0,86.112007,1.856,1.856,2.1,85.49978,1.516908,0.407174,-0.976885,-0.478249,99.0,0.0,1.0,3.289515,2,42900.0,85.51323517402943,25.99160666542028,42999,0.037700001150369644,-0.028999999165534973,-0.994700014591217
555,73018557,43118,43119,1,18,18.0,67.712006,-4.864,-4.864,1.5,68.07,-4.809241,-27.144503,-0.647998,-0.091911,-2.0,,0.0,2.604543,2,43100.0,68.23967833303496,26.135103163971564,43100,0.08699999749660492,-0.026100000366568565,-0.974399983882904
556,73018557,43118,43119,1,18,18.0,67.712006,-4.864,-4.864,1.5,68.07,-4.809241,-27.144503,-0.647998,-0.091911,-2.0,,0.0,2.604543,2,43100.0,68.23967833303496,26.135103163971564,43199,0.05510000139474869,-0.017400000244379044,-0.9424999952316284
557,73018557,43346,43319,1,18,18.0,61.472004,-4.896,-4.896,1.7,61.875547,-4.910775,-27.194913,-0.178505,-0.156693,-2.0,,0.0,2.354308,2,43300.0,62.07011380406704,26.281840353938396,43300,0.07249999791383743,-0.028999999165534973,-0.9222000241279602
558,73018557,43346,43319,1,18,18.0,61.472004,-4.896,-4.896,1.7,61.875547,-4.910775,-27.194913,-0.178505,-0.156693,-2.0,,0.0,2.354308,2,43300.0,62.07011380406704,26.281840353938396,43399,0.06379999965429306,-0.03189999982714653,-0.9424999952316284
559,73018557,43498,43469,1,18,18.0,57.248001,-5.024,-5.024,1.8,57.737989,-4.896289,-27.240007,0.42252,-0.111072,-2.0,,0.0,2.188803,2,43500.0,57.94522430481775,26.378796538564686,43500,0.049300000071525574,-0.06379999965429306,-0.9918000102043152
560,73018557,43498,43469,1,18,18.0,57.248001,-5.024,-5.024,1.8,57.737989,-4.896289,-27.240007,0.42252,-0.111072,-2.0,,0.0,2.188803,2,43500.0,57.94522430481775,26.378796538564686,43599,0.07249999791383743,-0.07249999791383743,-1.0149999856948853
561,73018557,43726,43732,1,22,22.0,27.136002,-5.888,-5.888,0.9,27.842013,-5.822463,-27.357558,0.006937,0.421875,-2.0,,0.0,1.049858,2,43700.0,28.44430985765937,26.519789342939713,43700,0.05220000073313713,-0.05220000073313713,-1.000499963760376
